loggingTime(txt),loggingSample(N),accelerometerTimestamp_sinceReboot(s),accelerometerAccelerationX(G),accelerometerAccelerationY(G),accelerometerAccelerationZ(G),gyroTimestamp_sinceReboot(s),gyroRotationX(rad/s),gyroRotationY(rad/s),gyroRotationZ(rad/s),magnetometerTimestamp_sinceReboot(s),magnetometerX(µT),magnetometerY(µT),magnetometerZ(µT),label(N)
2023-02-18T16:35:56.654Z,1,2005287.312551792,0.0633544921875,0.063720703125,-0.9662933349609375,2005287.299527792,-0.001311873085796833,0.08839137852191925,-0.0511806309223175,2005287.301229792,138.6275939941406,95.07882690429688,-497.5881958007812,3
2023-02-18T16:35:56.654Z,2,2005287.332540792,0.057342529296875,0.038726806640625,-0.962493896484375,2005287.319547792,-0.0008194546680897474,0.1192078813910484,-0.09867464751005173,2005287.320852792,138.7464447021484,95.21566772460938,-497.5767211914062,3
2023-02-18T16:35:56.655Z,3,2005287.352560792,0.1070556640625,0.0377197265625,-0.9745025634765625,2005287.339566792,-0.01705754734575748,0.07495919615030289,-0.07533416897058487,2005287.340475792,138.7308197021484,95.13926696777344,-497.6187438964844,3
2023-02-18T16:35:56.675Z,4,2005287.372579792,0.0841522216796875,0.0329132080078125,-0.9853973388671875,2005287.359555792,-0.03352094069123268,-0.05845052748918533,-0.08158993721008301,2005287.360128792,138.7229461669922,94.84187316894531,-497.4754028320312,3
2023-02-18T16:35:56.695Z,5,2005287.392568792,0.04876708984375,0.0287628173828125,-0.9679718017578125,2005287.379575792,-0.04077485948801041,-0.0716606080532074,-0.1065759807825089,2005287.379751792,138.8149566650391,95.02261352539062,-497.6034545898438,3
2023-02-18T16:35:56.715Z,6,2005287.412588792,0.0216064453125,0.0315399169921875,-0.9411163330078125,2005287.399594792,-0.05782628059387207,0.01669296063482761,-0.1498115956783295,2005287.399404792,138.7596588134766,94.85638427734375,-497.4587707519531,3
2023-02-18T16:35:56.735Z,7,2005287.432607792,0.049652099609375,0.0353851318359375,-0.9435272216796875,2005287.419583792,-0.08655699342489243,0.1090492531657219,-0.1819804608821869,2005287.419027792,138.8404541015625,95.26156616210938,-497.5719604492188,3
2023-02-18T16:35:56.755Z,8,2005287.452627792,0.0876312255859375,0.0462188720703125,-0.96435546875,2005287.439603792,-0.1139803677797318,0.06580058485269547,-0.191429078578949,2005287.438680792,138.8374328613281,95.38058471679688,-497.8142700195312,3
2023-02-18T16:35:56.775Z,9,2005287.472616792,0.0900726318359375,0.065338134765625,-0.978363037109375,2005287.459622792,-0.1254900097846985,0.003979827743023634,-0.2029499113559723,2005287.458303792,138.7597961425781,95.09339904785156,-497.787353515625,3
2023-02-18T16:35:56.795Z,10,2005287.492635792,0.06988525390625,0.075592041015625,-0.9793243408203125,2005287.479642792,-0.1322576403617859,0.01241006422787905,-0.222453311085701,2005287.477926792,138.8818969726562,95.21435546875,-498.0324401855469,3
2023-02-18T16:35:56.815Z,11,2005287.512655792,0.0650634765625,0.080535888671875,-0.97491455078125,2005287.499631792,-0.1282546371221542,0.07206593453884125,-0.2384202927350998,2005287.497579792,138.6035461425781,95.4222412109375,-497.7960815429688,3
2023-02-18T16:35:56.835Z,12,2005287.532644792,0.08355712890625,0.0875701904296875,-0.974822998046875,2005287.519650792,-0.1237254068255424,0.1160461753606796,-0.2664593756198883,2005287.517202792,138.9234466552734,95.49790954589844,-497.5846252441406,3
2023-02-18T16:35:56.855Z,13,2005287.552663792,0.097381591796875,0.0924835205078125,-0.9865570068359375,2005287.539670792,-0.1223370954394341,0.09475793689489365,-0.2904169261455536,2005287.536825792,139.24951171875,95.44345092773438,-498.0333557128906,3
2023-02-18T16:35:56.875Z,14,2005287.572683792,0.0960235595703125,0.0979766845703125,-0.99041748046875,2005287.559659792,-0.1201280057430267,0.06315206736326218,-0.3306466341018677,2005287.556448792,139.5594940185547,95.54524230957031,-497.7638549804688,3
2023-02-18T16:35:56.895Z,15,2005287.592672792,0.0910491943359375,0.1223297119140625,-0.993743896484375,2005287.579679792,-0.120081402361393,0.06432812660932541,-0.3760980069637299,2005287.576070792,139.0600433349609,95.61412048339844,-497.7301025390625,3
2023-02-18T16:35:56.915Z,16,2005287.612691792,0.0653839111328125,0.150177001953125,-0.98126220703125,2005287.599698792,-0.1108245179057121,0.1273507624864578,-0.4496324062347412,2005287.595724792,139.3965911865234,95.75680541992188,-497.91748046875,3
2023-02-18T16:35:56.935Z,17,2005287.632711792,0.077545166015625,0.188690185546875,-0.9814605712890625,2005287.619687792,-0.1065637245774269,0.2457594275474548,-0.542820930480957,2005287.615346792,139.3384094238281,95.52764892578125,-497.7337951660156,3
2023-02-18T16:35:56.955Z,18,2005287.652700792,0.1063232421875,0.253997802734375,-0.9873046875,2005287.639707792,-0.09803734719753265,0.2141061723232269,-0.6474536061286926,2005287.634969792,139.5692749023438,95.66661071777344,-498.0315246582031,3
2023-02-18T16:35:56.975Z,19,2005287.672720792,0.0812225341796875,0.292144775390625,-0.9718170166015625,2005287.659726792,-0.08056808263063431,0.2112483233213425,-0.8034016489982605,2005287.654592792,140.0397796630859,95.62295532226562,-497.810302734375,3
2023-02-18T16:35:56.995Z,20,2005287.692739792,0.046661376953125,0.32318115234375,-0.9427947998046875,2005287.679715792,-0.09887358546257019,0.3121869266033173,-0.9916197657585144,2005287.674215792,140.2616729736328,95.4774169921875,-497.9401245117188,3
2023-02-18T16:35:57.015Z,21,2005287.712728792,0.042449951171875,0.3621826171875,-0.924560546875,2005287.699735792,-0.1334893554449081,0.5270081758499146,-1.240429043769836,2005287.693807792,140.611328125,95.40298461914062,-498.1947021484375,3
2023-02-18T16:35:57.036Z,22,2005287.732748792,0.0870208740234375,0.398406982421875,-0.91229248046875,2005287.719754792,-0.1737046837806702,0.6816049218177795,-1.523908138275146,2005287.713430792,141.2918701171875,95.47711181640625,-497.8831787109375,3
2023-02-18T16:35:57.055Z,23,2005287.752767792,0.113861083984375,0.4134521484375,-0.89166259765625,2005287.739743792,-0.2017597556114197,0.7444544434547424,-1.824816107749939,2005287.733083792,142.1580352783203,95.41014099121094,-498.1633911132812,3
2023-02-18T16:35:57.077Z,24,2005287.772787792,0.1358184814453125,0.419158935546875,-0.8806915283203125,2005287.759763792,-0.2264802753925323,0.7547875046730042,-2.093580007553101,2005287.752706792,142.5648345947266,95.34112548828125,-498.2500610351562,3
2023-02-18T16:35:57.096Z,25,2005287.792776792,0.151092529296875,0.4376373291015625,-0.8777618408203125,2005287.779782792,-0.2353864163160324,0.7298129200935364,-2.343681335449219,2005287.772359792,143.3511962890625,95.19485473632812,-498.2512817382812,3
2023-02-18T16:35:57.115Z,26,2005287.812795792,0.1682281494140625,0.468414306640625,-0.86566162109375,2005287.799771792,-0.2323208600282669,0.745523989200592,-2.591112613677979,2005287.791982792,143.8112945556641,95.30598449707031,-498.2294311523438,3
2023-02-18T16:35:57.135Z,27,2005287.832815792,0.1638031005859375,0.511749267578125,-0.8433837890625,2005287.819791792,-0.2190183699131012,0.8655022978782654,-2.890435457229614,2005287.811605792,144.75146484375,95.28303527832031,-498.3265991210938,3
2023-02-18T16:35:57.156Z,28,2005287.852804792,0.18817138671875,0.53765869140625,-0.830535888671875,2005287.839810792,-0.172611191868782,1.090921878814697,-3.196749687194824,2005287.831228792,145.7758483886719,95.28764343261719,-498.6352844238281,3
2023-02-18T16:35:57.175Z,29,2005287.872823792,0.2807464599609375,0.5666656494140625,-0.8390045166015625,2005287.859830792,-0.1011663004755974,1.140084862709045,-3.432371377944946,2005287.850851792,146.8755035400391,95.14848327636719,-498.4420776367188,3
2023-02-18T16:35:57.196Z,30,2005287.892843792,0.3123931884765625,0.5775604248046875,-0.8247222900390625,2005287.879819792,-0.0406520888209343,0.9968249201774597,-3.645578861236572,2005287.870473792,147.9003448486328,94.98847961425781,-498.4307250976562,3
2023-02-18T16:35:57.215Z,31,2005287.912832792,0.3074951171875,0.59124755859375,-0.8064422607421875,2005287.899838792,-0.01824212074279785,0.9329867959022522,-3.839962244033813,2005287.890096792,148.9198150634766,95.21739196777344,-498.49609375,3
2023-02-18T16:35:57.236Z,32,2005287.932842625,0.2946624755859375,0.6110076904296875,-0.7833404541015625,2005287.919858792,-0.01098447386175394,1.00484311580658,-4.007106304168701,2005287.909750792,149.9673461914062,95.21340942382812,-498.2330322265625,3
2023-02-18T16:35:57.255Z,33,2005287.952862625,0.26239013671875,0.6072845458984375,-0.760345458984375,2005287.939838625,-0.00848270021378994,1.321297526359558,-4.210644245147705,2005287.929363625,151.3974609375,95.29911804199219,-498.2777099609375,3
2023-02-18T16:35:57.277Z,34,2005287.972851625,0.2999114990234375,0.6020050048828125,-0.77362060546875,2005287.959857625,0.03038666769862175,1.647463083267212,-4.36387300491333,2005287.949017625,152.3653411865234,95.59576416015625,-498.23193359375,3
2023-02-18T16:35:57.297Z,35,2005287.992870625,0.399932861328125,0.5988922119140625,-0.790008544921875,2005287.979877625,0.09438828378915787,1.774089455604553,-4.460025787353516,2005287.968670625,153.92724609375,95.86837768554688,-497.9317016601562,3
2023-02-18T16:35:57.316Z,36,2005288.012890625,0.48724365234375,0.5651702880859375,-0.7949981689453125,2005287.999866625,0.1420239806175232,1.605310559272766,-4.499325275421143,2005287.988293625,155.7489166259766,96.48162841796875,-497.536865234375,3
2023-02-18T16:35:57.336Z,37,2005288.032879625,0.469329833984375,0.4907684326171875,-0.7943572998046875,2005288.019886625,0.145890086889267,1.255096435546875,-4.528821468353271,2005288.007916625,157.2134704589844,97.28427124023438,-497.3515014648438,3
2023-02-18T16:35:57.356Z,38,2005288.052899625,0.3856201171875,0.453887939453125,-0.7918548583984375,2005288.039905625,0.08119045943021774,1.09411633014679,-4.560624599456787,2005288.027569625,158.1449584960938,97.9263916015625,-496.8082885742188,3
2023-02-18T16:35:57.375Z,39,2005288.072918625,0.322418212890625,0.4459381103515625,-0.81243896484375,2005288.059894625,0.06068545207381248,1.332911372184753,-4.641837120056152,2005288.047192625,158.9214782714844,98.94818115234375,-496.2777709960938,3
2023-02-18T16:35:57.397Z,40,2005288.092907625,0.403961181640625,0.4684906005859375,-0.8499298095703125,2005288.079914625,0.1267699301242828,1.57253086566925,-4.573714256286621,2005288.066815625,159.9561767578125,99.7547607421875,-496.0114135742188,3
2023-02-18T16:35:57.416Z,41,2005288.112927625,0.430267333984375,0.4569244384765625,-0.8329925537109375,2005288.099933625,0.2388839572668076,1.572736740112305,-4.513342380523682,2005288.086468625,161.0967864990234,100.8100280761719,-495.4259033203125,3
2023-02-18T16:35:57.435Z,42,2005288.132946625,0.351776123046875,0.421142578125,-0.7697906494140625,2005288.119922625,0.3383705914020538,1.67389976978302,-4.490614414215088,2005288.106091625,162.0106811523438,101.8558959960938,-494.9103393554688,3
2023-02-18T16:35:57.456Z,43,2005288.152966625,0.2955322265625,0.373321533203125,-0.7309722900390625,2005288.139942625,0.4380548298358917,1.954666495323181,-4.403673648834229,2005288.125713625,163.0342407226562,102.6805725097656,-494.1923217773438,3
2023-02-18T16:35:57.477Z,44,2005288.172955625,0.361053466796875,0.37188720703125,-0.74798583984375,2005288.159961625,0.5238088965415955,2.285236120223999,-4.286153793334961,2005288.145336625,163.7493438720703,103.5726318359375,-493.7733764648438,3
2023-02-18T16:35:57.496Z,45,2005288.192974625,0.470672607421875,0.3582763671875,-0.772247314453125,2005288.179981625,0.6215463876724243,2.24036169052124,-4.108516693115234,2005288.164959625,164.9242401123047,104.4458770751953,-492.9461669921875,3
2023-02-18T16:35:57.515Z,46,2005288.212994625,0.4883575439453125,0.3219146728515625,-0.7646484375,2005288.199970625,0.6455888748168945,1.917065620422363,-3.932541847229004,2005288.184612625,166.13720703125,105.1826019287109,-491.9708251953125,3
2023-02-18T16:35:57.535Z,47,2005288.232983625,0.451568603515625,0.271881103515625,-0.7513580322265625,2005288.219989625,0.5947245955467224,1.7521653175354,-3.767487525939941,2005288.204235625,166.6986236572266,105.7957611083984,-491.2420654296875,3
2023-02-18T16:35:57.556Z,48,2005288.253002625,0.4633331298828125,0.2917633056640625,-0.7674102783203125,2005288.240009625,0.5130044221878052,1.808166742324829,-3.564908027648926,2005288.223889625,167.1379852294922,106.9301452636719,-490.70458984375,3
2023-02-18T16:35:57.576Z,49,2005288.273022625,0.485015869140625,0.343231201171875,-0.7914886474609375,2005288.259998625,0.4396860301494598,1.822067737579346,-3.302176952362061,2005288.243511625,167.5615081787109,107.5983581542969,-490.0064697265625,3
2023-02-18T16:35:57.596Z,50,2005288.293011625,0.4893646240234375,0.3488922119140625,-0.7838897705078125,2005288.280017625,0.3994291424751282,1.86105477809906,-3.000550746917725,2005288.282787625,168.5702056884766,109.2324066162109,-488.2234497070312,3
2023-02-18T16:35:57.616Z,51,2005288.313030625,0.524566650390625,0.3391571044921875,-0.767974853515625,2005288.300037625,0.3300900161266327,1.839275717735291,-2.670626401901245,2005288.302441625,169.1495513916016,110.0897979736328,-487.7955627441406,3
2023-02-18T16:35:57.636Z,52,2005288.333050625,0.5735931396484375,0.361114501953125,-0.7727813720703125,2005288.320026625,0.2522301077842712,1.720490217208862,-2.33212423324585,2005288.322064625,169.491455078125,110.7818756103516,-486.8003234863281,3
2023-02-18T16:35:57.656Z,53,2005288.353039625,0.6013336181640625,0.39959716796875,-0.79705810546875,2005288.340045625,0.1543240547180176,1.289178252220154,-1.961777925491333,2005288.341717625,169.6519775390625,111.5161285400391,-486.1780090332031,3
2023-02-18T16:35:57.675Z,54,2005288.373058625,0.5629730224609375,0.440185546875,-0.7917938232421875,2005288.360065625,0.09816012531518936,0.9870988130569458,-1.676257014274597,2005288.361340625,169.8166809082031,112.0327606201172,-485.7399291992188,3
2023-02-18T16:35:57.696Z,55,2005288.393078625,0.534515380859375,0.4536285400390625,-0.7913818359375,2005288.380054625,0.09178557991981506,0.9892953634262085,-1.398249864578247,2005288.380993625,169.9299468994141,112.5248107910156,-485.1640625,3
2023-02-18T16:35:57.715Z,56,2005288.413067625,0.5644378662109375,0.4571685791015625,-0.7869720458984375,2005288.400074625,0.1027415618300438,1.025400161743164,-1.112992525100708,2005288.400616625,170.2074279785156,113.1018218994141,-484.6632995605469,3
2023-02-18T16:35:57.736Z,57,2005288.433087625,0.5777130126953125,0.4720306396484375,-0.7694244384765625,2005288.420093625,0.08119764924049377,0.8425812721252441,-0.8310481905937195,2005288.420269625,170.5208282470703,113.4108123779297,-484.4524536132812,3
2023-02-18T16:35:57.756Z,58,2005288.453106625,0.498931884765625,0.4802398681640625,-0.7343597412109375,2005288.440082625,0.005033107940107584,0.654828667640686,-0.6103855967521667,2005288.439892625,170.5511322021484,113.4067535400391,-483.8969421386719,3
2023-02-18T16:35:57.776Z,59,2005288.473126625,0.442230224609375,0.4966888427734375,-0.7313690185546875,2005288.460102625,-0.0600055456161499,0.704656183719635,-0.439717710018158,2005288.459545625,170.5590057373047,113.6029205322266,-483.3446960449219,3
2023-02-18T16:35:57.796Z,60,2005288.493115625,0.481231689453125,0.5290374755859375,-0.7664031982421875,2005288.480121625,-0.06342983990907669,0.7801655530929565,-0.3062427639961243,2005288.479168625,171.0660400390625,113.6865844726562,-483.0115356445312,3
2023-02-18T16:35:57.816Z,61,2005288.513134625,0.5012664794921875,0.55145263671875,-0.7702484130859375,2005288.500110625,-0.04799176007509232,0.6317771673202515,-0.1921776980161667,2005288.498821625,171.4434661865234,113.767578125,-482.6441040039062,3
2023-02-18T16:35:57.836Z,62,2005288.533154625,0.4553375244140625,0.5754852294921875,-0.7623748779296875,2005288.520130625,-0.08343444019556046,0.4553651213645935,-0.08585178852081299,2005288.518444625,171.6575469970703,114.060302734375,-482.483154296875,3
2023-02-18T16:35:57.856Z,63,2005288.553143625,0.401611328125,0.6381683349609375,-0.73651123046875,2005288.540149625,-0.1831442564725876,0.318595826625824,0.02835414372384548,2005288.538097625,171.7470855712891,114.1963500976562,-482.1688842773438,3
2023-02-18T16:35:57.876Z,64,2005288.573162625,0.41790771484375,0.7220306396484375,-0.7535552978515625,2005288.560169625,-0.2704368233680725,0.3116601407527924,0.08784729987382889,2005288.557720625,171.8826599121094,114.2271118164062,-481.9442443847656,3
2023-02-18T16:35:57.896Z,65,2005288.593182625,0.4500885009765625,0.76141357421875,-0.815093994140625,2005288.580158625,-0.2759977579116821,0.3042568266391754,0.1353650093078613,2005288.577374625,171.8527069091797,114.4001922607422,-481.660400390625,3
2023-02-18T16:35:57.915Z,66,2005288.613171625,0.43829345703125,0.7445220947265625,-0.8119964599609375,2005288.600177625,-0.2442590147256851,0.2149176299571991,0.1386377662420273,2005288.596996625,172.0858917236328,114.4912109375,-481.4329223632812,3
2023-02-18T16:35:57.936Z,67,2005288.633190625,0.3842620849609375,0.710906982421875,-0.762359619140625,2005288.620197625,-0.2250259220600128,0.2318582683801651,0.1195181384682655,2005288.616650625,172.0453033447266,114.3457641601562,-481.3436279296875,3
2023-02-18T16:35:57.956Z,68,2005288.653210625,0.3496246337890625,0.6782684326171875,-0.7208709716796875,2005288.640186625,-0.2175805270671844,0.3042206168174744,0.1004033014178276,2005288.636303625,172.3964996337891,114.4850616455078,-481.1421203613281,3
2023-02-18T16:35:57.976Z,69,2005288.673199625,0.353790283203125,0.6365814208984375,-0.719329833984375,2005288.660205625,-0.2106416523456573,0.3752234280109406,0.07821118086576462,2005288.655926625,172.5324859619141,114.6383209228516,-480.9295654296875,3
2023-02-18T16:35:57.996Z,70,2005288.693218625,0.3529510498046875,0.6009521484375,-0.727630615234375,2005288.680225625,-0.1952238231897354,0.3608367443084717,0.04299407079815865,2005288.675549625,172.5590515136719,114.7407836914062,-480.5065307617188,3
2023-02-18T16:35:58.016Z,71,2005288.713238625,0.37725830078125,0.576568603515625,-0.7527923583984375,2005288.700214625,-0.1665778011083603,0.2810777425765991,0.0177955087274313,2005288.695171625,172.8574676513672,114.6340637207031,-480.3597412109375,3
2023-02-18T16:35:58.036Z,72,2005288.733227625,0.3545074462890625,0.5622406005859375,-0.7308197021484375,2005288.720233625,-0.1475468426942825,0.1977958977222443,0.005929261911660433,2005288.714794625,172.6681976318359,114.8676605224609,-480.1493530273438,3
2023-02-18T16:35:58.056Z,73,2005288.753246625,0.3416290283203125,0.5644378662109375,-0.68927001953125,2005288.740253625,-0.1528388112783432,0.2533867359161377,-0.002100435085594654,2005288.734448625,173.0045318603516,114.8109741210938,-479.8294677734375,3
2023-02-18T16:35:58.076Z,74,2005288.773266625,0.2920989990234375,0.58782958984375,-0.7032318115234375,2005288.760242625,-0.1813330352306366,0.3669961094856262,-0.03860172256827354,2005288.754070625,173.1304473876953,114.7068176269531,-479.6044921875,3
2023-02-18T16:35:58.096Z,75,2005288.793255625,0.3741455078125,0.6750335693359375,-0.710174560546875,2005288.780262625,-0.1673684865236282,0.8781880140304565,-0.00794394314289093,2005288.773693625,173.1461791992188,115.1522827148438,-479.1657409667969,3
2023-02-18T16:35:58.116Z,76,2005288.813274625,0.589630126953125,0.6857147216796875,-0.9033203125,2005288.800281625,-0.02286696620285511,0.6036757826805115,0.0007366303470917046,2005288.793316625,173.8594818115234,114.9998626708984,-478.7938842773438,3
2023-02-18T16:35:58.136Z,77,2005288.833294625,0.4461669921875,0.6391754150390625,-0.8603668212890625,2005288.820270625,0.1396273970603943,0.2619434595108032,-0.1084436550736427,2005288.812969625,173.8631286621094,115.1809997558594,-478.6310119628906,3
2023-02-18T16:35:58.156Z,78,2005288.853314625,0.4539337158203125,0.6017608642578125,-0.80877685546875,2005288.840290625,0.2363859117031097,0.5493480563163757,-0.07711395621299744,2005288.832592625,174.1209716796875,115.1895446777344,-478.6184692382812,3
2023-02-18T16:35:58.176Z,79,2005288.873303625,0.501220703125,0.5862884521484375,-0.7263946533203125,2005288.860309625,0.2170018255710602,0.5875359177589417,-0.08574046939611435,2005288.852215625,174.3603363037109,115.1676025390625,-478.322265625,3
2023-02-18T16:35:58.196Z,80,2005288.893322625,0.4828338623046875,0.57073974609375,-0.6800384521484375,2005288.880329625,0.1300781071186066,0.3612748384475708,-0.1444895416498184,2005288.871868625,174.5015411376953,115.0918273925781,-478.1045227050781,3
2023-02-18T16:35:58.216Z,81,2005288.913342625,0.4622650146484375,0.556427001953125,-0.71221923828125,2005288.900318625,0.03092728927731514,-0.03812288492918015,-0.1801135838031769,2005288.891491625,174.5725708007812,115.1015930175781,-478.2205810546875,3
2023-02-18T16:35:58.236Z,82,2005288.933331625,0.3674774169921875,0.5645751953125,-0.71258544921875,2005288.920337625,-0.02487445622682571,-0.2319341599941254,-0.2068205624818802,2005288.911144625,174.3024749755859,115.4114379882812,-478.0405883789062,3
2023-02-18T16:35:58.256Z,83,2005288.953354667,0.34765625,0.5300750732421875,-0.70257568359375,2005288.940361667,-0.07896912097930908,0.01397520396858454,-0.1600205600261688,2005288.930771667,174.1916351318359,115.4965972900391,-478.0516357421875,3
2023-02-18T16:35:58.276Z,84,2005288.973374667,0.4120330810546875,0.5259857177734375,-0.72698974609375,2005288.960350667,-0.1312341839075089,0.2699582576751709,-0.06073605269193649,2005288.950424667,174.0905609130859,115.1971893310547,-478.0192260742188,3
2023-02-18T16:35:58.296Z,85,2005288.993363667,0.499908447265625,0.5480499267578125,-0.783233642578125,2005288.980369667,-0.1324472576379776,0.1940909177064896,0.05925986170768738,2005288.970047667,174.3069915771484,115.4865570068359,-477.8660583496094,3
2023-02-18T16:35:58.316Z,86,2005289.013382667,0.47979736328125,0.5396270751953125,-0.7613983154296875,2005289.000389667,-0.0969286784529686,-0.2075004577636719,0.1433009654283524,2005288.989701667,174.2666625976562,115.4391326904297,-477.8153686523438,3
2023-02-18T16:35:58.336Z,87,2005289.033402667,0.4183197021484375,0.5181121826171875,-0.7176513671875,2005289.020378667,-0.08294202387332916,-0.2837283909320831,0.2126507461071014,2005289.009354667,174.1599273681641,115.4495544433594,-477.826416015625,3
2023-02-18T16:35:58.359Z,88,2005289.053391667,0.3935699462890625,0.5433197021484375,-0.6883544921875,2005289.040397667,-0.08966197818517685,-0.2424778789281845,0.271379828453064,2005289.028977667,174.2510986328125,115.3292083740234,-478.0057373046875,3
2023-02-18T16:35:58.376Z,89,2005289.073410667,0.411865234375,0.527069091796875,-0.6703948974609375,2005289.060417667,-0.1177870854735374,0.1390111446380615,0.3311784565448761,2005289.048600667,174.2729339599609,115.1365356445312,-478.0662841796875,3
2023-02-18T16:35:58.397Z,90,2005289.093430667,0.4515380859375,0.5022735595703125,-0.6927642822265625,2005289.080406667,-0.1345594078302383,0.1139582619071007,0.2816274166107178,2005289.068253667,174.4154357910156,115.1887817382812,-478.0075073242188,3
2023-02-18T16:35:58.416Z,91,2005289.113419667,0.444915771484375,0.5141754150390625,-0.6904144287109375,2005289.100425667,-0.1080881208181381,0.003758252831175923,0.2019051611423492,2005289.087876667,174.6842956542969,115.0008087158203,-478.0389404296875,3
2023-02-18T16:35:58.442Z,92,2005289.133438667,0.423797607421875,0.50848388671875,-0.7028350830078125,2005289.120445667,-0.05094786733388901,-0.07791716605424881,0.09175149351358414,2005289.107498667,174.8146057128906,114.8050384521484,-477.8355102539062,3
2023-02-18T16:35:58.456Z,93,2005289.153458667,0.3946380615234375,0.52490234375,-0.7182769775390625,2005289.140434667,-0.003353186184540391,0.02602494321763515,-0.04808283969759941,2005289.127152667,174.6012878417969,114.9876861572266,-478.1327514648438,3
2023-02-18T16:35:58.476Z,94,2005289.173477667,0.3868865966796875,0.5304412841796875,-0.738525390625,2005289.160454667,0.03077255934476852,0.2298063039779663,-0.1480794847011566,2005289.146805667,174.69775390625,114.8676147460938,-477.8263549804688,3
2023-02-18T16:35:58.496Z,95,2005289.193466667,0.4718017578125,0.54144287109375,-0.7914581298828125,2005289.180473667,0.096441850066185,0.1701653450727463,-0.1431960463523865,2005289.166428667,174.6648712158203,114.9564361572266,-477.7828979492188,3
2023-02-18T16:35:58.516Z,96,2005289.213486667,0.45745849609375,0.5336761474609375,-0.766510009765625,2005289.200462667,0.1542244553565979,0.1120261400938034,-0.1355429142713547,2005289.186081667,174.6118316650391,114.9489898681641,-477.7467041015625,3
2023-02-18T16:35:58.536Z,97,2005289.233506667,0.4409942626953125,0.5212554931640625,-0.7352447509765625,2005289.220482667,0.1681005954742432,0.1634432524442673,-0.08207809180021286,2005289.205704667,175.0241851806641,114.9723358154297,-477.8203735351562,3
2023-02-18T16:35:58.556Z,98,2005289.253495667,0.432098388671875,0.5139312744140625,-0.70849609375,2005289.240501667,0.1380340307950974,0.1475380510091782,-0.05055132508277893,2005289.225357667,174.6872253417969,114.921630859375,-477.8151550292969,3
2023-02-18T16:35:58.576Z,99,2005289.273514667,0.427642822265625,0.5153350830078125,-0.72149658203125,2005289.260521667,0.07453841716051102,0.005607019178569317,-0.01810044050216675,2005289.244980667,174.7820587158203,114.9895477294922,-477.713623046875,3
2023-02-18T16:35:58.596Z,100,2005289.293534667,0.4129486083984375,0.5572357177734375,-0.75054931640625,2005289.280510667,0.01964933425188065,-0.1480381935834885,-0.001862082164734602,2005289.264633667,174.7141723632812,114.84033203125,-477.8062133789062,3
2023-02-18T16:35:58.616Z,101,2005289.313523667,0.382110595703125,0.580108642578125,-0.741241455078125,2005289.300529667,-0.0009329052991233766,-0.1663178652524948,-0.01458373665809631,2005289.284287667,174.7605895996094,114.9482116699219,-477.8006591796875,3
2023-02-18T16:35:58.636Z,102,2005289.333542667,0.344818115234375,0.5594940185546875,-0.7264862060546875,2005289.320549667,-0.01873533800244331,0.02073856815695763,-0.04883092269301414,2005289.323532667,174.8233795166016,114.9877014160156,-478.0054931640625,3
2023-02-18T16:35:58.656Z,103,2005289.353562667,0.380462646484375,0.54791259765625,-0.734161376953125,2005289.340538667,0.0008772452711127698,0.2231260240077972,-0.05092416703701019,2005289.343155667,174.9776763916016,115.0190887451172,-477.9700317382812,3
2023-02-18T16:35:58.676Z,104,2005289.373551667,0.4497528076171875,0.5449066162109375,-0.717529296875,2005289.360557667,0.04101428017020226,0.23283351957798,-0.06213634088635445,2005289.362809667,174.9044494628906,115.2115783691406,-477.8114624023438,3
2023-02-18T16:35:58.696Z,105,2005289.393570667,0.4541473388671875,0.5112762451171875,-0.6999664306640625,2005289.380577667,0.07168270647525787,0.1509674042463303,-0.05133935436606407,2005289.382431667,174.9187316894531,115.0865478515625,-477.7724609375,3
2023-02-18T16:35:58.716Z,106,2005289.413590667,0.4777984619140625,0.510772705078125,-0.6989898681640625,2005289.400566667,0.0441589392721653,0.1189346462488174,-0.02680418267846107,2005289.402085667,175.0471801757812,115.3289337158203,-477.5684204101562,3
2023-02-18T16:35:58.736Z,107,2005289.433579667,0.449371337890625,0.5161590576171875,-0.7135162353515625,2005289.420585667,0.02787264436483383,-0.1231972947716713,-0.01826315931975842,2005289.421707667,174.9239501953125,115.0131530761719,-477.8829650878906,3
2023-02-18T16:35:58.756Z,108,2005289.453598667,0.37860107421875,0.506378173828125,-0.691680908203125,2005289.440605667,0.003532416885718703,-0.07051917165517807,-0.01586738042533398,2005289.441361667,175.0562286376953,114.9438629150391,-477.8258666992188,3
2023-02-18T16:35:58.776Z,109,2005289.473618667,0.370330810546875,0.509124755859375,-0.7008514404296875,2005289.460594667,-0.02015134133398533,0.06753430515527725,-0.02559457533061504,2005289.461014667,175.095458984375,115.0139312744141,-477.8394775390625,3
2023-02-18T16:35:58.796Z,110,2005289.493637667,0.358795166015625,0.5112457275390625,-0.72314453125,2005289.480613667,-0.0476391576230526,0.07063102722167969,-0.0535212829709053,2005289.480667667,174.8300170898438,115.2715301513672,-477.8389892578125,3
2023-02-18T16:35:58.816Z,111,2005289.513626667,0.3870849609375,0.5512237548828125,-0.7178192138671875,2005289.500633667,-0.07793714106082916,0.04389981180429459,-0.09158584475517273,2005289.500290667,175.0299072265625,115.1659545898438,-477.7414245605469,3
2023-02-18T16:35:58.836Z,112,2005289.533646667,0.4090423583984375,0.527984619140625,-0.7476959228515625,2005289.520622667,-0.08011241257190704,0.056295495480299,-0.08477453887462616,2005289.519944667,175.0090179443359,115.1961059570312,-477.9183959960938,3
2023-02-18T16:35:58.857Z,113,2005289.553665667,0.4354705810546875,0.5399169921875,-0.778961181640625,2005289.540642667,-0.07453788071870804,0.025424400344491,-0.09066572040319443,2005289.539566667,175.0207214355469,115.1690979003906,-477.5516967773438,3
2023-02-18T16:35:58.876Z,114,2005289.573654667,0.415191650390625,0.5454254150390625,-0.7580108642578125,2005289.560661667,-0.04041479900479317,-0.02778289467096329,-0.0941760316491127,2005289.559220667,174.8305969238281,115.3172302246094,-477.6560668945312,3
2023-02-18T16:35:58.896Z,115,2005289.593674667,0.42205810546875,0.536773681640625,-0.73065185546875,2005289.580681667,-0.03034698590636253,0.1415797621011734,-0.0963614210486412,2005289.578873667,174.9486846923828,115.3421325683594,-477.410888671875,3
2023-02-18T16:35:58.916Z,116,2005289.613694667,0.4309234619140625,0.532135009765625,-0.7274932861328125,2005289.600670667,-0.02610590308904648,0.2165328413248062,-0.1225823760032654,2005289.598496667,174.9658203125,115.44091796875,-477.4482421875,3
2023-02-18T16:35:58.936Z,117,2005289.633683667,0.4083709716796875,0.531036376953125,-0.729583740234375,2005289.620689667,-0.01361487805843353,0.1457923501729965,-0.1383301764726639,2005289.618149667,174.9932708740234,115.7900543212891,-477.3606567382812,3
2023-02-18T16:35:58.956Z,118,2005289.653702667,0.4020233154296875,0.5261383056640625,-0.724945068359375,2005289.640709667,0.005356948357075453,0.03966831788420677,-0.1380710601806641,2005289.637802667,175.0066680908203,115.3616638183594,-477.2152709960938,3
2023-02-18T16:35:58.976Z,119,2005289.673722667,0.392242431640625,0.5217132568359375,-0.7196044921875,2005289.660698667,0.01066063344478607,0.08195611834526062,-0.1322264820337296,2005289.657456667,174.9703063964844,115.7982330322266,-477.2152099609375,3
2023-02-18T16:35:58.996Z,120,2005289.693711667,0.445281982421875,0.5449981689453125,-0.7383270263671875,2005289.680717667,0.00654631620272994,0.1643207669258118,-0.08631385117769241,2005289.677079667,174.9211273193359,115.8676300048828,-477.1316833496094,3
2023-02-18T16:35:59.016Z,121,2005289.713730667,0.46875,0.5591583251953125,-0.7313232421875,2005289.700737667,0.002098038326948881,0.1405722945928574,-0.05645209178328514,2005289.696732667,175.3141326904297,116.1136016845703,-477.154296875,3
2023-02-18T16:35:59.036Z,122,2005289.733750667,0.4635467529296875,0.5386199951171875,-0.716949462890625,2005289.720726667,-0.007887484505772591,0.09753374755382538,-0.02662122435867786,2005289.716385667,174.9053344726562,115.8138580322266,-477.1590881347656,3
2023-02-18T16:35:59.056Z,123,2005289.753739667,0.4560089111328125,0.5290679931640625,-0.711822509765625,2005289.740745667,-0.01613609306514263,0.0228845439851284,0.01624448411166668,2005289.736039667,174.9813842773438,115.9637908935547,-476.9515075683594,3
2023-02-18T16:35:59.076Z,124,2005289.773758667,0.4464569091796875,0.5421600341796875,-0.7094573974609375,2005289.760765667,-0.02636529505252838,-0.06401094049215317,0.03646213561296463,2005289.755692667,174.9074249267578,115.7627105712891,-477.0702209472656,3
2023-02-18T16:35:59.096Z,125,2005289.793778667,0.4205780029296875,0.5418243408203125,-0.6944732666015625,2005289.780754667,-0.03349617496132851,-0.06489404290914536,0.02641722559928894,2005289.775345667,175.1949615478516,115.8422088623047,-476.9459838867188,3
2023-02-18T16:35:59.116Z,126,2005289.813767667,0.412933349609375,0.536834716796875,-0.6980743408203125,2005289.800773667,-0.04019642248749733,0.02153352089226246,0.02765532955527306,2005289.794968667,175.1043853759766,116.2298736572266,-477.1558837890625,3
2023-02-18T16:35:59.136Z,127,2005289.833786667,0.42987060546875,0.5413970947265625,-0.7089691162109375,2005289.820793667,-0.02743295580148697,0.05533116683363914,0.007514641620218754,2005289.814621667,175.0877532958984,115.79541015625,-477.198486328125,3
2023-02-18T16:35:59.156Z,128,2005289.853806667,0.4340972900390625,0.549407958984375,-0.7191162109375,2005289.840782667,-0.01341833733022213,0.02481906302273273,0.001178182428702712,2005289.834244667,174.9556579589844,115.8761901855469,-477.1239013671875,3
2023-02-18T16:35:59.176Z,129,2005289.873825667,0.432403564453125,0.5515899658203125,-0.7126007080078125,2005289.860801667,-0.001619201968424022,0.04042092710733414,0.002756105503067374,2005289.853897667,175.0610809326172,115.8469848632812,-476.9957885742188,3
2023-02-18T16:35:59.197Z,130,2005289.893814667,0.4381256103515625,0.5461273193359375,-0.695831298828125,2005289.880821667,0.01014637760818005,0.1593422591686249,-0.007556719705462456,2005289.873520667,175.0849151611328,115.6761932373047,-476.9788818359375,3
2023-02-18T16:35:59.216Z,131,2005289.913834667,0.4492034912109375,0.523223876953125,-0.6862030029296875,2005289.900810667,-0.002485261997207999,0.2035690993070602,-0.004058657679706812,2005289.893174667,175.3289489746094,116.0171661376953,-476.903564453125,3
2023-02-18T16:35:59.236Z,132,2005289.933853667,0.4622039794921875,0.52264404296875,-0.6893463134765625,2005289.920830667,-0.01944134198129177,0.1570103913545609,0.0007022755453363061,2005289.912827667,175.1907348632812,115.8243865966797,-476.7993774414062,3
2023-02-18T16:35:59.256Z,133,2005289.953806375,0.4884185791015625,0.534271240234375,-0.7138671875,2005289.940813375,-0.02655038423836231,-0.04037964716553688,0.01014797482639551,2005289.932414375,175.3804473876953,115.9869384765625,-476.4869384765625,3
2023-02-18T16:35:59.277Z,134,2005289.973826375,0.47698974609375,0.548553466796875,-0.712738037109375,2005289.960833375,-0.01886636577546597,-0.2659081220626831,0.01725568622350693,2005289.952067375,175.2440185546875,115.8545227050781,-476.7057495117188,3
2023-02-18T16:35:59.297Z,135,2005289.993846375,0.4211883544921875,0.553070068359375,-0.706329345703125,2005289.980822375,-0.0108691593632102,-0.2949866354465485,0.0134705351665616,2005289.971690375,175.1468963623047,115.880859375,-477.0549926757812,3
2023-02-18T16:35:59.316Z,136,2005290.013835375,0.3802032470703125,0.551055908203125,-0.719573974609375,2005290.000841375,0.004639759194105864,-0.1685051321983337,0.002767024328932166,2005289.991343375,175.1644897460938,115.7210388183594,-477.0059509277344,3
2023-02-18T16:35:59.336Z,137,2005290.033854375,0.3864593505859375,0.5455322265625,-0.734039306640625,2005290.020861375,0.03316754102706909,-0.01358132250607014,-0.01899100095033646,2005290.010996375,175.0706176757812,116.0950775146484,-477.3782348632812,3
2023-02-18T16:35:59.356Z,138,2005290.053874375,0.4207763671875,0.5365447998046875,-0.73895263671875,2005290.040850375,0.06653588265180588,0.03224395588040352,-0.03143675252795219,2005290.030619375,175.3334350585938,115.8229522705078,-477.2008972167969,3
2023-02-18T16:35:59.376Z,139,2005290.073863375,0.436767578125,0.527679443359375,-0.72637939453125,2005290.060869375,0.07896006107330322,-0.01572170481085777,-0.02777836844325066,2005290.050273375,175.0916137695312,115.7526397705078,-477.1214599609375,3
2023-02-18T16:35:59.397Z,140,2005290.093882375,0.4299774169921875,0.5299530029296875,-0.7077178955078125,2005290.080889375,0.06291345506906509,-0.027997812256217,-0.02979624457657337,2005290.069926375,175.1031188964844,115.7641143798828,-477.1148986816406,3
2023-02-18T16:35:59.416Z,141,2005290.113902375,0.4416046142578125,0.5426025390625,-0.69891357421875,2005290.100878375,0.02489176765084267,0.01154506951570511,-0.0193989984691143,2005290.089579375,175.0846405029297,115.7085571289062,-477.0702819824219,3
2023-02-18T16:35:59.436Z,142,2005290.133891375,0.4597930908203125,0.557098388671875,-0.7020263671875,2005290.120897375,-0.01084226090461016,-0.07332880795001984,0.03860065713524818,2005290.109202375,175.0121154785156,115.8406982421875,-477.0209350585938,3
2023-02-18T16:35:59.456Z,143,2005290.153910375,0.4474945068359375,0.552703857421875,-0.679901123046875,2005290.140917375,-0.06199013441801071,-0.2132856398820877,0.05805371701717377,2005290.128855375,175.0446166992188,115.8490600585938,-477.2080688476562,3
2023-02-18T16:35:59.476Z,144,2005290.173930375,0.412445068359375,0.5410003662109375,-0.7027130126953125,2005290.160906375,-0.08197636157274246,-0.1889116019010544,0.05405524373054504,2005290.148478375,175.1719055175781,115.7637939453125,-477.370849609375,3
2023-02-18T16:35:59.497Z,145,2005290.193949375,0.4355316162109375,0.566619873046875,-0.748626708984375,2005290.180925375,-0.05762201547622681,-0.1918421387672424,0.06275232881307602,2005290.168101375,174.8766479492188,115.8629760742188,-477.4298400878906,3
2023-02-18T16:35:59.516Z,146,2005290.213938375,0.46160888671875,0.56695556640625,-0.7824554443359375,2005290.200945375,0.009525061585009098,-0.2055571526288986,0.06157414987683296,2005290.187754375,174.8366851806641,115.7464294433594,-477.58935546875,3
2023-02-18T16:35:59.537Z,147,2005290.233958375,0.4436798095703125,0.5583038330078125,-0.7720947265625,2005290.220934375,0.1023825630545616,-0.1056028604507446,0.0894973948597908,2005290.207408375,174.931396484375,115.6541442871094,-477.7373046875,3
2023-02-18T16:35:59.558Z,148,2005290.253977375,0.3990325927734375,0.5408935546875,-0.69659423828125,2005290.240953375,0.1058188378810883,0.06711884588003159,0.1269108057022095,2005290.227030375,175.0261535644531,115.5545349121094,-477.7421875,3
2023-02-18T16:35:59.577Z,149,2005290.273966375,0.4059295654296875,0.50518798828125,-0.6945953369140625,2005290.260973375,0.0844176784157753,0.2768489122390747,0.1541208624839783,2005290.246684375,175.0451812744141,115.4036560058594,-477.69384765625,3
2023-02-18T16:35:59.597Z,150,2005290.293986375,0.4567718505859375,0.5110015869140625,-0.706787109375,2005290.280992375,0.04985810443758965,0.2168827801942825,0.1581701934337616,2005290.266306375,175.2884063720703,115.14697265625,-477.3560791015625,3
2023-02-18T16:35:59.616Z,151,2005290.314005375,0.4602508544921875,0.49615478515625,-0.7126617431640625,2005290.300982375,0.01928394846618176,0.05395431071519852,0.1396891921758652,2005290.285960375,175.2804870605469,115.0362396240234,-477.3552856445312,3
2023-02-18T16:35:59.636Z,152,2005290.333994375,0.4360198974609375,0.5002288818359375,-0.7105255126953125,2005290.321001375,0.006986004300415516,-0.02162087336182594,0.09923417866230011,2005290.305613375,175.2882537841797,114.9282379150391,-477.30126953125,3
2023-02-18T16:35:59.656Z,153,2005290.354014375,0.3987274169921875,0.486236572265625,-0.691436767578125,2005290.341021375,-0.003758252831175923,-0.02233459986746311,0.05088874697685242,2005290.325236375,175.5788879394531,115.0791320800781,-477.3467407226562,3
2023-02-18T16:35:59.677Z,154,2005290.374034375,0.4076385498046875,0.4978790283203125,-0.692596435546875,2005290.361010375,-0.02023922465741634,0.0361739844083786,0.02281530015170574,2005290.344889375,175.5388031005859,115.0709075927734,-477.4534912109375,3
2023-02-18T16:35:59.697Z,155,2005290.394023375,0.433837890625,0.4997406005859375,-0.7229766845703125,2005290.381029375,-0.02757969684898853,0.05012788251042366,-0.006738862954080105,2005290.364543375,175.1946411132812,114.8514251708984,-477.4508666992188,3
2023-02-18T16:35:59.716Z,156,2005290.414042375,0.433349609375,0.51104736328125,-0.741943359375,2005290.401049375,-0.02488564141094685,0.004417119082063437,-0.035061314702034,2005290.403819375,175.3224334716797,115.2298583984375,-477.3699951171875,3
2023-02-18T16:35:59.737Z,157,2005290.434062375,0.433685302734375,0.521697998046875,-0.753326416015625,2005290.421038375,-0.02475115284323692,-0.04233946651220322,-0.02818503230810165,2005290.423441375,175.4251251220703,115.1175231933594,-477.4947509765625,3
2023-02-18T16:35:59.759Z,158,2005290.454051375,0.4463043212890625,0.5326995849609375,-0.745819091796875,2005290.441057375,-0.01645327545702457,-0.05428960546851158,-0.003966245800256729,2005290.443095375,175.2422790527344,114.89794921875,-477.4248962402344,3
2023-02-18T16:35:59.776Z,159,2005290.474070375,0.42828369140625,0.5073394775390625,-0.7081451416015625,2005290.461077375,-0.02311011217534542,0.04593899473547935,-0.005287173669785261,2005290.462718375,175.4924011230469,114.9425354003906,-477.6171569824219,3
2023-02-18T16:35:59.797Z,160,2005290.494090375,0.44390869140625,0.4905853271484375,-0.701873779296875,2005290.481066375,-0.03957537189126015,0.2037166357040405,0.03484559804201126,2005290.482371375,175.6715087890625,114.7239837646484,-477.3800048828125,3
2023-02-18T16:35:59.816Z,161,2005290.514079375,0.4755401611328125,0.4959716796875,-0.7027130126953125,2005290.501085375,-0.07357728481292725,0.1238324642181396,0.03845551237463951,2005290.501994375,175.6079864501953,115.1149749755859,-477.3631286621094,3
2023-02-18T16:35:59.837Z,162,2005290.534098375,0.47979736328125,0.5212860107421875,-0.7260589599609375,2005290.521105375,-0.0911371037364006,-0.1214483976364136,0.06656011939048767,2005290.521647375,175.3645782470703,114.8171691894531,-477.5136108398438,3
2023-02-18T16:35:59.857Z,163,2005290.554118375,0.457427978515625,0.5358123779296875,-0.7179718017578125,2005290.541094375,-0.09309399127960205,-0.2053347826004028,0.07006510347127914,2005290.541300375,175.3410949707031,115.1147918701172,-477.346435546875,3
2023-02-18T16:35:59.877Z,164,2005290.574137375,0.4432830810546875,0.5389404296875,-0.7066192626953125,2005290.561113375,-0.08905983716249466,-0.1344952285289764,0.06890343129634857,2005290.560923375,175.4842834472656,114.848876953125,-477.5856628417969,3
2023-02-18T16:35:59.897Z,165,2005290.594126375,0.426727294921875,0.5287322998046875,-0.70245361328125,2005290.581133375,-0.08237689733505249,-0.03541871160268784,0.06788264214992523,2005290.580576375,175.6625823974609,114.9575958251953,-477.3238525390625,3
2023-02-18T16:35:59.917Z,166,2005290.614146375,0.449493408203125,0.533538818359375,-0.717803955078125,2005290.601122375,-0.06612548977136612,-0.0067828050814569,0.0673350989818573,2005290.600230375,175.3672637939453,114.701904296875,-477.8012084960938,3
2023-02-18T16:35:59.937Z,167,2005290.634165375,0.464569091796875,0.5489349365234375,-0.7214813232421875,2005290.621141375,-0.05478867888450623,-0.09518563747406006,0.074073426425457,2005290.619853375,175.5123138427734,114.9200134277344,-477.64794921875,3
2023-02-18T16:35:59.957Z,168,2005290.654154375,0.43115234375,0.5381317138671875,-0.713653564453125,2005290.641161375,-0.04105502367019653,-0.1231735944747925,0.06443651020526886,2005290.639506375,175.4511566162109,114.7947235107422,-477.5364685058594,3
2023-02-18T16:35:59.977Z,169,2005290.674174375,0.413848876953125,0.532073974609375,-0.7011260986328125,2005290.661180375,-0.0397878922522068,-0.01330195646733046,0.05051537230610847,2005290.659129375,175.3980255126953,114.9134826660156,-477.6170654296875,3
2023-02-18T16:35:59.997Z,170,2005290.694193375,0.4225311279296875,0.5307464599609375,-0.7099609375,2005290.681169375,-0.03646986186504364,0.09290730208158493,0.02830274403095245,2005290.678782375,175.2169647216797,114.9241485595703,-477.4859008789062,3
2023-02-18T16:36:00.017Z,171,2005290.714182375,0.439727783203125,0.530792236328125,-0.72601318359375,2005290.701189375,-0.02058224007487297,0.1021242365241051,0.01048326678574085,2005290.698435375,175.6099548339844,114.8897705078125,-477.3948364257812,3
2023-02-18T16:36:00.036Z,172,2005290.734202375,0.43109130859375,0.523712158203125,-0.727294921875,2005290.721209375,-0.01091177016496658,0.0442151315510273,0.0002346244873479009,2005290.718058375,175.4658203125,114.6040954589844,-477.4125366210938,3
2023-02-18T16:36:00.057Z,173,2005290.754221375,0.4324188232421875,0.5179290771484375,-0.721038818359375,2005290.741198375,-0.01243163552135229,0.06630551815032959,-0.00797563511878252,2005290.737711375,175.5024566650391,114.9546508789062,-477.3117065429688,3
2023-02-18T16:36:00.077Z,174,2005290.774211375,0.4400177001953125,0.5138702392578125,-0.72222900390625,2005290.761217375,-0.02038250304758549,0.130940705537796,-0.01704369857907295,2005290.757365375,175.67333984375,114.9043731689453,-477.376708984375,3
2023-02-18T16:36:00.097Z,175,2005290.794230375,0.4511566162109375,0.506500244140625,-0.7227630615234375,2005290.781237375,-0.02207920327782631,0.1293838173151016,-0.01161724142730236,2005290.776988375,175.7436065673828,114.7373962402344,-477.2943115234375,3
2023-02-18T16:36:00.117Z,176,2005290.814250375,0.4439239501953125,0.502166748046875,-0.7227630615234375,2005290.801226375,-0.02666276879608631,0.05754478648304939,-0.01009844057261944,2005290.796641375,175.9006042480469,115.0134429931641,-477.2989807128906,3
2023-02-18T16:36:00.137Z,177,2005290.834239375,0.42596435546875,0.50592041015625,-0.7196807861328125,2005290.821245375,-0.02484702691435814,-0.002248240634799004,-0.02637355029582977,2005290.816294375,175.7379302978516,114.7774200439453,-477.2242736816406,3
2023-02-18T16:36:00.157Z,178,2005290.854258375,0.412261962890625,0.51373291015625,-0.7198028564453125,2005290.841265375,-0.01883547380566597,-0.008213188499212265,-0.04651769995689392,2005290.835917375,175.8312377929688,114.710693359375,-477.19482421875,3
2023-02-18T16:36:00.177Z,179,2005290.874278375,0.4215850830078125,0.5202178955078125,-0.7200775146484375,2005290.861254375,-0.02347203716635704,0.06347724050283432,-0.05375297740101814,2005290.855570375,176.1447296142578,114.9702301025391,-477.1972045898438,3
2023-02-18T16:36:00.197Z,180,2005290.894297375,0.452392578125,0.5369873046875,-0.71136474609375,2005290.881273375,-0.02650750800967216,0.1732034683227539,-0.04041427001357079,2005290.875224375,175.8481750488281,115.0373077392578,-476.9528503417969,3
2023-02-18T16:36:00.217Z,181,2005290.914286375,0.483856201171875,0.52374267578125,-0.712860107421875,2005290.901293375,-0.02408935688436031,0.1156919747591019,-0.03109533526003361,2005290.894877375,175.7594299316406,115.3330078125,-477.0968933105469,3
2023-02-18T16:36:00.237Z,182,2005290.934308,0.4621429443359375,0.524658203125,-0.7096099853515625,2005290.921282375,-0.02210769988596439,-0.02085361629724503,-0.04076899960637093,2005290.914530375,175.8709869384766,115.1585235595703,-477.14990234375,3
2023-02-18T16:36:00.257Z,183,2005290.954327,0.4491729736328125,0.54150390625,-0.7065887451171875,2005290.941303,-0.01762906089425087,-0.03234941884875298,-0.02809874527156353,2005290.934155,175.7445678710938,114.8866577148438,-476.8831176757812,3
2023-02-18T16:36:00.277Z,184,2005290.974316,0.45196533203125,0.5369720458984375,-0.7131805419921875,2005290.961323,-0.006107693538069725,0.00324452924542129,-0.02586115896701813,2005290.953808,175.6699066162109,115.1243133544922,-476.9188842773438,3
2023-02-18T16:36:00.297Z,185,2005290.994336,0.4561004638671875,0.5258026123046875,-0.7144927978515625,2005290.981342,0.001137968734838068,0.01985892653465271,-0.02279852330684662,2005290.973462,175.7306671142578,115.1875,-476.8823852539062,3
2023-02-18T16:36:00.317Z,186,2005291.014355,0.462646484375,0.5274505615234375,-0.7038421630859375,2005291.001331,-0.003188070142641664,0.02169357798993587,-0.01106756459921598,2005290.993115,175.6628723144531,114.9334869384766,-477.1453247070312,3
2023-02-18T16:36:00.337Z,187,2005291.034344,0.4641876220703125,0.526153564453125,-0.7135009765625,2005291.021351,-0.004377970471978188,-0.007202519103884697,0.006445382256060839,2005291.012738,175.8677978515625,114.9313812255859,-476.9300231933594,3
2023-02-18T16:36:00.357Z,188,2005291.054364,0.45477294921875,0.5229949951171875,-0.7034912109375,2005291.04137,-0.009364739991724491,-0.08368850499391556,0.01305907685309649,2005291.032391,175.7117156982422,115.1897735595703,-477.1629028320312,3
2023-02-18T16:36:00.377Z,189,2005291.074383,0.43426513671875,0.5198516845703125,-0.7028961181640625,2005291.061359,-0.01646073162555695,-0.05255934968590736,0.01039485074579716,2005291.052014,175.8852844238281,114.9472045898438,-477.1124877929688,3
2023-02-18T16:36:00.403Z,190,2005291.094372,0.4358673095703125,0.5209503173828125,-0.7147216796875,2005291.081379,-0.02170689404010773,-0.003158509032800794,-0.001923334901221097,2005291.071667,175.6522674560547,115.2023162841797,-477.0408325195312,3
2023-02-18T16:36:00.417Z,191,2005291.114392,0.4481048583984375,0.5231475830078125,-0.72412109375,2005291.101399,-0.01671399921178818,-0.008977249264717102,-0.004810734186321497,2005291.091321,175.8050689697266,115.0928497314453,-477.2120666503906,3
2023-02-18T16:36:00.437Z,192,2005291.134411,0.4519500732421875,0.5196075439453125,-0.7254638671875,2005291.121388,-0.01159140840172768,-0.03648264333605766,-0.008411328308284283,2005291.110974,175.5933837890625,115.051025390625,-477.0764770507812,3
2023-02-18T16:36:00.457Z,193,2005291.1544,0.4441680908203125,0.5163726806640625,-0.71820068359375,2005291.141407,-0.008230498991906643,-0.06144578382372856,-0.005381183233112097,2005291.130627,175.5844116210938,115.2449035644531,-477.1314086914062,3
2023-02-18T16:36:00.477Z,194,2005291.17442,0.4407958984375,0.522247314453125,-0.7130584716796875,2005291.161427,-0.01281885989010334,-0.008168714120984077,-0.00244717882014811,2005291.150281,175.5269775390625,114.9448394775391,-477.1191101074219,3
2023-02-18T16:36:00.497Z,195,2005291.19444,0.4378662109375,0.5246429443359375,-0.7261505126953125,2005291.181416,-0.01464791875332594,0.01423752494156361,-0.001501490245573223,2005291.169903,175.6661071777344,115.0093536376953,-477.2354431152344,3
2023-02-18T16:36:00.517Z,196,2005291.214429,0.4357147216796875,0.52734375,-0.7224578857421875,2005291.201435,-0.009188172407448292,0.007591340690851212,-0.008247011341154575,2005291.189557,175.689453125,115.2242431640625,-477.2762145996094,3
2023-02-18T16:36:00.537Z,197,2005291.234448,0.4446563720703125,0.52044677734375,-0.71319580078125,2005291.221455,-0.004276237916201353,0.02684892527759075,-0.01469825208187103,2005291.20921,175.6193542480469,115.0550079345703,-477.0944213867188,3
2023-02-18T16:36:00.557Z,198,2005291.254468,0.45037841796875,0.51611328125,-0.71087646484375,2005291.241444,-0.008248608559370041,0.01095837540924549,-0.0141528369858861,2005291.228833,175.7717132568359,115.1450500488281,-476.9569702148438,3
2023-02-18T16:36:00.577Z,199,2005291.274487,0.4496002197265625,0.5206298828125,-0.716461181640625,2005291.261463,-0.01379144564270973,-0.006083192303776741,-0.008619586937129498,2005291.248486,175.7645568847656,115.1535186767578,-477.0487060546875,3
2023-02-18T16:36:00.597Z,200,2005291.294476,0.448760986328125,0.5298004150390625,-0.7270355224609375,2005291.281483,-0.01023346278816462,-0.004698348697274923,2.130528855559533e-06,2005291.268109,175.6681213378906,115.0979156494141,-477.2138671875,3
2023-02-18T16:36:00.617Z,201,2005291.314496,0.4474334716796875,0.5312042236328125,-0.721038818359375,2005291.301472,-0.003015230875462294,0.01389637403190136,0.006172141991555691,2005291.287762,175.5805053710938,115.1893615722656,-477.1654663085938,3
2023-02-18T16:36:00.637Z,202,2005291.334515,0.4495697021484375,0.5245361328125,-0.7042999267578125,2005291.321491,0.001724396832287312,0.01623889058828354,0.003030677326023579,2005291.307385,175.7113952636719,114.9751281738281,-477.1355590820312,3
2023-02-18T16:36:00.657Z,203,2005291.354504,0.4543304443359375,0.516448974609375,-0.69305419921875,2005291.341511,-0.01458586659282446,0.01005503069609404,-0.005573463626205921,2005291.327008,175.6844940185547,115.1548309326172,-477.09912109375,3
2023-02-18T16:36:00.678Z,204,2005291.374524,0.4537506103515625,0.5160675048828125,-0.7053070068359375,2005291.36153,-0.02418256737291813,-0.04275918006896973,0.01036102790385485,2005291.346661,175.5680389404297,115.1834716796875,-477.1415710449219,3
2023-02-18T16:36:00.698Z,205,2005291.394543,0.46258544921875,0.5302581787109375,-0.7257232666015625,2005291.381519,-0.02658180892467499,-0.08227623254060745,0.02054442279040813,2005291.366284,175.5329437255859,114.9711456298828,-477.1318664550781,3
2023-02-18T16:36:00.717Z,206,2005291.414532,0.4595794677734375,0.5357208251953125,-0.730865478515625,2005291.401539,-0.0135307228192687,-0.1143105998635292,0.03314197435975075,2005291.385937,175.7624359130859,114.9722290039062,-477.1668701171875,3
2023-02-18T16:36:00.737Z,207,2005291.434552,0.44793701171875,0.523712158203125,-0.716888427734375,2005291.421558,-0.005093828309327364,-0.1059179082512856,0.04051173850893974,2005291.405591,175.5024261474609,114.9289245605469,-477.1312255859375,3
2023-02-18T16:36:00.759Z,208,2005291.454571,0.4326629638671875,0.5186004638671875,-0.6996307373046875,2005291.441547,-0.01120471768081188,-0.05623344331979752,0.02810993231832981,2005291.425213,175.4861297607422,114.6059112548828,-477.2446899414062,3
2023-02-18T16:36:00.777Z,209,2005291.47456,0.4254302978515625,0.5244598388671875,-0.70953369140625,2005291.461567,-0.0158039964735508,-0.010037986561656,0.01490997336804867,2005291.46449,175.7402954101562,115.0937194824219,-477.3874816894531,3
2023-02-18T16:36:00.797Z,210,2005291.49458,0.44122314453125,0.5257110595703125,-0.72015380859375,2005291.481587,-0.01197730097919703,-0.023902403190732,0.01305508147925138,2005291.484112,175.4568023681641,114.8333740234375,-477.3403015136719,3
2023-02-18T16:36:00.817Z,211,2005291.514599,0.4560394287109375,0.52099609375,-0.7285919189453125,2005291.501576,-0.01645141094923019,-0.1068537458777428,0.03239335864782333,2005291.503766,175.7341766357422,114.8994140625,-477.3480529785156,3
2023-02-18T16:36:00.837Z,212,2005291.534588,0.45782470703125,0.514678955078125,-0.7257080078125,2005291.521595,-0.01994068548083305,-0.1794983893632889,0.03922436758875847,2005291.523389,175.4791717529297,114.8241729736328,-477.1947021484375,3
2023-02-18T16:36:00.857Z,213,2005291.554608,0.4342041015625,0.5106658935546875,-0.7138519287109375,2005291.541615,-0.02328934334218502,-0.1608575880527496,0.02715465612709522,2005291.543042,175.5318450927734,114.9647369384766,-477.3395080566406,3
2023-02-18T16:36:00.877Z,214,2005291.574628,0.4296875,0.5256195068359375,-0.7299346923828125,2005291.561604,-0.01982031017541885,-0.07694511860609055,0.02812750823795795,2005291.562665,175.65625,114.9564819335938,-477.4468688964844,3
2023-02-18T16:36:00.897Z,215,2005291.594617,0.4395751953125,0.5342559814453125,-0.728179931640625,2005291.581623,-0.01357706170529127,-0.03359364718198776,0.01730255782604218,2005291.582257,175.5709838867188,114.9687805175781,-477.7364807128906,3
2023-02-18T16:36:00.917Z,216,2005291.614636,0.4612274169921875,0.54083251953125,-0.71636962890625,2005291.601643,-0.01723704300820827,-0.04711318388581276,0.03516704216599464,2005291.60188,175.3640441894531,114.7680969238281,-477.6307983398438,3
2023-02-18T16:36:00.937Z,217,2005291.634656,0.458587646484375,0.5406341552734375,-0.7016143798828125,2005291.621632,-0.03510206192731857,-0.07385371625423431,0.05844306945800781,2005291.621503,175.4735260009766,114.8885040283203,-477.6072387695312,3
2023-02-18T16:36:00.957Z,218,2005291.654675,0.4319915771484375,0.5413818359375,-0.7040557861328125,2005291.641651,-0.04357490688562393,-0.04381139576435089,0.05634423345327377,2005291.641125,175.7084197998047,114.8953247070312,-477.6111450195312,3
2023-02-18T16:36:00.977Z,219,2005291.674664,0.4344482421875,0.5378875732421875,-0.7282562255859375,2005291.661671,-0.03427435085177422,-0.02507738955318928,0.06076348200440407,2005291.660718,175.4825897216797,114.8091278076172,-477.8121948242188,3
2023-02-18T16:36:00.997Z,220,2005291.694684,0.470062255859375,0.5706634521484375,-0.741546630859375,2005291.68169,-0.0337425172328949,-0.2340476512908936,0.08389542996883392,2005291.68034,175.5331878662109,114.6817016601562,-477.7461242675781,3
2023-02-18T16:36:01.017Z,221,2005291.714703,0.450286865234375,0.60052490234375,-0.756622314453125,2005291.701679,0.02044348977506161,-0.3349896967411041,0.08930777758359909,2005291.699994,175.3455200195312,114.8352355957031,-477.9216918945312,3
2023-02-18T16:36:01.037Z,222,2005291.734692,0.3856201171875,0.541412353515625,-0.7008514404296875,2005291.721699,0.03169934079051018,-0.105861984193325,0.1160387247800827,2005291.719617,175.3164825439453,114.7159729003906,-477.7734069824219,3
2023-02-18T16:36:01.057Z,223,2005291.754712,0.4537811279296875,0.5321502685546875,-0.6971588134765625,2005291.741718,-0.01396721415221691,0.3711991012096405,0.1593039035797119,2005291.73927,175.5156707763672,114.8049774169922,-478.0064697265625,3
2023-02-18T16:36:01.077Z,224,2005291.774731,0.52288818359375,0.5157012939453125,-0.765716552734375,2005291.761707,-0.07239643484354019,0.3179188370704651,0.1531591862440109,2005291.758893,175.8168792724609,114.6255493164062,-477.8511657714844,3
2023-02-18T16:36:01.097Z,225,2005291.79472,0.477783203125,0.542205810546875,-0.811431884765625,2005291.781727,-0.06742484867572784,-0.1052715629339218,0.1053722277283669,2005291.778546,175.7351531982422,114.4210357666016,-477.5320434570312,3
2023-02-18T16:36:01.117Z,226,2005291.81474,0.391448974609375,0.5294647216796875,-0.725677490234375,2005291.801746,-0.1191468983888626,-0.2351986616849899,0.1192326471209526,2005291.798199,175.6535797119141,114.5663909912109,-477.8265075683594,3
2023-02-18T16:36:01.137Z,227,2005291.834759,0.4117279052734375,0.552490234375,-0.69873046875,2005291.821735,-0.2372005730867386,0.1582471579313278,0.1659412980079651,2005291.817822,175.7802429199219,114.4298248291016,-477.9006958007812,3
2023-02-18T16:36:01.157Z,228,2005291.854748,0.5103759765625,0.555816650390625,-0.7684173583984375,2005291.841755,-0.3096050024032593,0.2684844434261322,0.2531790137290955,2005291.837475,176.1563262939453,114.2528533935547,-477.6217346191406,3
2023-02-18T16:36:01.177Z,229,2005291.874768,0.5417327880859375,0.527130126953125,-0.7876739501953125,2005291.861775,-0.3439722955226898,0.1699464321136475,0.3005049824714661,2005291.857129,175.8926239013672,114.3521575927734,-477.5433654785156,3
2023-02-18T16:36:01.198Z,230,2005291.894787,0.568511962890625,0.50250244140625,-0.752716064453125,2005291.881764,-0.4013170599937439,0.1585267931222916,0.3742798566818237,2005291.876782,176.1656188964844,114.0730590820312,-476.8656616210938,3
2023-02-18T16:36:01.217Z,231,2005291.914776,0.642791748046875,0.5028228759765625,-0.73529052734375,2005291.901783,-0.4896458685398102,0.08455722779035568,0.4865731000900269,2005291.896405,176.2898406982422,114.0657958984375,-476.9852294921875,3
2023-02-18T16:36:01.237Z,232,2005291.934790792,0.669097900390625,0.52081298828125,-0.71875,2005291.921803,-0.583996057510376,-0.1591819375753403,0.5791618824005127,2005291.916058,176.6526184082031,113.9297332763672,-476.8150024414062,3
2023-02-18T16:36:01.257Z,233,2005291.954810792,0.6598358154296875,0.517547607421875,-0.696441650390625,2005291.941786792,-0.637109637260437,-0.2775138914585114,0.6925305128097534,2005291.935706792,176.7513427734375,114.0337219238281,-476.97607421875,3
2023-02-18T16:36:01.277Z,234,2005291.974829792,0.649566650390625,0.497100830078125,-0.6842498779296875,2005291.961805792,-0.6665692329406738,-0.2784103155136108,0.833402693271637,2005291.955359792,176.9597473144531,113.8119354248047,-476.7414245605469,3
2023-02-18T16:36:01.297Z,235,2005291.994818792,0.6402130126953125,0.4807891845703125,-0.662750244140625,2005291.981825792,-0.68964684009552,-0.1975258588790894,0.984032928943634,2005291.974982792,177.1429443359375,113.7662658691406,-476.7332153320312,3
2023-02-18T16:36:01.317Z,236,2005292.014838792,0.6253662109375,0.469482421875,-0.609771728515625,2005292.001814792,-0.7142041325569153,0.001485777553170919,1.105799317359924,2005291.994635792,177.2445678710938,113.1800079345703,-476.8245849609375,3
2023-02-18T16:36:01.337Z,237,2005292.034857792,0.6571197509765625,0.455230712890625,-0.56494140625,2005292.021833792,-0.7873483896255493,0.2019701451063156,1.227669358253479,2005292.014288792,177.6973876953125,112.9032135009766,-476.7108764648438,3
2023-02-18T16:36:01.357Z,238,2005292.054846792,0.716583251953125,0.4830322265625,-0.57977294921875,2005292.041853792,-0.8493720889091492,0.05417295545339584,1.352863669395447,2005292.033942792,178.1587371826172,112.4699249267578,-476.1555786132812,3
2023-02-18T16:36:01.377Z,239,2005292.074866792,0.6930694580078125,0.4762420654296875,-0.5856170654296875,2005292.061872792,-0.8419809937477112,-0.1697733253240585,1.425908088684082,2005292.053595792,178.7498168945312,112,-476.2870178222656,3
2023-02-18T16:36:01.397Z,240,2005292.094885792,0.671722412109375,0.436614990234375,-0.5578765869140625,2005292.081861792,-0.8361595869064331,-0.2233667820692062,1.500505685806274,2005292.073218792,178.9622955322266,111.5210723876953,-476.1847534179688,3
2023-02-18T16:36:01.417Z,241,2005292.114874792,0.71337890625,0.4368743896484375,-0.562896728515625,2005292.101881792,-0.8485502004623413,-0.3213636577129364,1.615789651870728,2005292.092871792,179.5352783203125,111.0055541992188,-476.5075378417969,3
2023-02-18T16:36:01.437Z,242,2005292.134894792,0.7195892333984375,0.43536376953125,-0.568572998046875,2005292.121900792,-0.8491547703742981,-0.4307580590248108,1.647645831108093,2005292.112524792,179.5733337402344,110.4399719238281,-476.4127807617188,3
2023-02-18T16:36:01.457Z,243,2005292.154913792,0.6991119384765625,0.4250946044921875,-0.556976318359375,2005292.141889792,-0.8355132341384888,-0.4544631242752075,1.656038284301758,2005292.132147792,179.7953491210938,109.7549133300781,-476.7102661132812,3
2023-02-18T16:36:01.477Z,244,2005292.174902792,0.670013427734375,0.4185791015625,-0.5244293212890625,2005292.161909792,-0.835184633731842,-0.3480746150016785,1.682564616203308,2005292.151801792,180.2234649658203,109.387451171875,-476.8657531738281,3
2023-02-18T16:36:01.497Z,245,2005292.194922792,0.63720703125,0.4098358154296875,-0.45697021484375,2005292.181928792,-0.8816410899162292,-0.1475055664777756,1.692515850067139,2005292.171454792,180.5135498046875,108.2426605224609,-476.9622192382812,3
2023-02-18T16:36:01.517Z,246,2005292.214941792,0.656829833984375,0.4009857177734375,-0.4340972900390625,2005292.201917792,-0.9585340023040771,0.08922228962182999,1.710716366767883,2005292.191077792,180.7832641601562,107.7694091796875,-476.9066772460938,3
2023-02-18T16:36:01.537Z,247,2005292.234930792,0.692138671875,0.4107818603515625,-0.4451446533203125,2005292.221937792,-1.037444233894348,0.189836248755455,1.705379366874695,2005292.210730792,181.0087432861328,107.3542022705078,-476.8518676757812,3
2023-02-18T16:36:01.557Z,248,2005292.254950792,0.70098876953125,0.419708251953125,-0.4481048583984375,2005292.241957792,-1.122397780418396,0.184442549943924,1.644874811172485,2005292.230383792,181.3051910400391,106.3579864501953,-476.427978515625,3
2023-02-18T16:36:01.577Z,249,2005292.274969792,0.703826904296875,0.4400482177734375,-0.4354400634765625,2005292.261946792,-1.206595182418823,0.1669407784938812,1.58466899394989,2005292.250037792,181.9149932861328,105.72265625,-476.2810668945312,3
2023-02-18T16:36:01.597Z,250,2005292.294958792,0.71417236328125,0.458343505859375,-0.4059295654296875,2005292.281965792,-1.29580545425415,0.1204273477196693,1.538366436958313,2005292.269690792,182.3937072753906,105.4009552001953,-476.2374572753906,3
2023-02-18T16:36:01.618Z,251,2005292.314978792,0.7236785888671875,0.461090087890625,-0.3707122802734375,2005292.301985792,-1.40760600566864,0.06652150303125381,1.451782822608948,2005292.289313792,182.6947784423828,104.6627197265625,-476.0941772460938,3
2023-02-18T16:36:01.637Z,252,2005292.334998792,0.737030029296875,0.467681884765625,-0.3487701416015625,2005292.321974792,-1.514734864234924,-0.003838147735223174,1.363315343856812,2005292.308966792,182.9136962890625,104.3906707763672,-475.8750610351562,3
2023-02-18T16:36:01.657Z,253,2005292.355017792,0.7655029296875,0.4804229736328125,-0.3546295166015625,2005292.341993792,-1.601551055908203,-0.1592551618814468,1.283937335014343,2005292.328619792,183.1679992675781,103.9801788330078,-476.0213012695312,3
2023-02-18T16:36:01.677Z,254,2005292.375006792,0.7875518798828125,0.4892578125,-0.377593994140625,2005292.362013792,-1.655198335647583,-0.4105105698108673,1.1668461561203,2005292.348242792,183.3581237792969,103.8634185791016,-475.9466552734375,3
2023-02-18T16:36:01.697Z,255,2005292.395026792,0.779266357421875,0.4915618896484375,-0.401031494140625,2005292.382032792,-1.660432934761047,-0.6888114213943481,1.022511124610901,2005292.367895792,183.1691589355469,103.6424407958984,-476.0286560058594,3
2023-02-18T16:36:01.717Z,256,2005292.415045792,0.7576446533203125,0.49774169921875,-0.4126434326171875,2005292.402021792,-1.623620390892029,-0.9114453196525574,0.8911717534065247,2005292.387518792,183.396484375,103.8115997314453,-476.404296875,3
2023-02-18T16:36:01.737Z,257,2005292.435034792,0.7262725830078125,0.4991607666015625,-0.3904266357421875,2005292.422041792,-1.566015124320984,-1.028844356536865,0.7618598341941833,2005292.407172792,182.9840087890625,103.553955078125,-476.794921875,3
2023-02-18T16:36:01.758Z,258,2005292.455054792,0.68939208984375,0.490081787109375,-0.3715057373046875,2005292.442060792,-1.514693856239319,-1.010974049568176,0.6301976442337036,2005292.426825792,182.8192291259766,103.8520355224609,-477.4006042480469,3
2023-02-18T16:36:01.778Z,259,2005292.475073792,0.6797943115234375,0.4810333251953125,-0.4002685546875,2005292.462049792,-1.469362854957581,-0.9617026448249817,0.5065534710884094,2005292.446448792,182.5626983642578,104.1334686279297,-477.7431030273438,3
2023-02-18T16:36:01.797Z,260,2005292.495062792,0.7108001708984375,0.507232666015625,-0.4144287109375,2005292.482069792,-1.414287447929382,-0.9841094017028809,0.4460565745830536,2005292.466101792,182.611328125,104.3106689453125,-478.3804016113281,3
2023-02-18T16:36:01.818Z,261,2005292.515082792,0.709930419921875,0.5235595703125,-0.430267333984375,2005292.502088792,-1.343951940536499,-1.067554712295532,0.3756093084812164,2005292.485724792,182.101318359375,105.1628112792969,-478.6614379882812,3
2023-02-18T16:36:01.837Z,262,2005292.535101792,0.6761627197265625,0.5367584228515625,-0.4400177001953125,2005292.522077792,-1.287737131118774,-1.098289012908936,0.2487749308347702,2005292.525030792,181.63720703125,105.976318359375,-479.9741821289062,3
2023-02-18T16:36:01.857Z,263,2005292.555090792,0.6397247314453125,0.538421630859375,-0.4722137451171875,2005292.542097792,-1.24756920337677,-1.157155990600586,0.08533380925655365,2005292.544684792,180.955322265625,106.3131408691406,-480.3923950195312,3
2023-02-18T16:36:01.878Z,264,2005292.575110792,0.6102752685546875,0.56085205078125,-0.4754180908203125,2005292.562116792,-1.243110299110413,-1.228105306625366,-0.09317308664321899,2005292.564307792,180.6339569091797,107.2598114013672,-481.101806640625,3
2023-02-18T16:36:01.898Z,265,2005292.595129792,0.620025634765625,0.61871337890625,-0.4885406494140625,2005292.582105792,-1.220085978507996,-1.149723887443542,-0.2601575553417206,2005292.583960792,180.2081451416016,107.7958984375,-481.2652587890625,3
2023-02-18T16:36:01.917Z,266,2005292.615118792,0.6077728271484375,0.6599578857421875,-0.52069091796875,2005292.602125792,-1.155801296234131,-1.064459562301636,-0.4430661201477051,2005292.603613792,179.6190948486328,108.6491088867188,-482.29248046875,3
2023-02-18T16:36:01.937Z,267,2005292.635138792,0.554595947265625,0.6485137939453125,-0.53057861328125,2005292.622144792,-1.104180693626404,-1.05759584903717,-0.5459331274032593,2005292.623236792,179.0606689453125,109.7277221679688,-482.4842529296875,3
2023-02-18T16:36:01.958Z,268,2005292.655157792,0.50140380859375,0.6383514404296875,-0.53802490234375,2005292.642134792,-1.046641707420349,-0.9355429410934448,-0.5391638875007629,2005292.642889792,178.2656555175781,110.5881958007812,-482.3329772949219,3
2023-02-18T16:36:01.977Z,269,2005292.675177792,0.50567626953125,0.642578125,-0.5886688232421875,2005292.662153792,-0.9839173555374146,-0.7816708087921143,-0.4707408845424652,2005292.662543792,177.9537963867188,111.525634765625,-482.7721862792969,3
2023-02-18T16:36:01.997Z,270,2005292.695166792,0.5615081787109375,0.6894989013671875,-0.64117431640625,2005292.682173792,-0.8468831181526184,-0.8134266138076782,-0.3377596735954285,2005292.682165792,177.6421661376953,111.765625,-482.8434143066406,3
2023-02-18T16:36:02.017Z,271,2005292.715186792,0.5365753173828125,0.700042724609375,-0.6282958984375,2005292.702162792,-0.6832515597343445,-0.9715187549591064,-0.2806668281555176,2005292.701819792,177.1492919921875,112.4061279296875,-483.4104614257812,3
2023-02-18T16:36:02.038Z,272,2005292.735205792,0.4726104736328125,0.694427490234375,-0.5870819091796875,2005292.722181792,-0.5585072040557861,-0.9523037672042847,-0.2812047898769379,2005292.721442792,176.4576263427734,112.9466552734375,-483.3521118164062,3
2023-02-18T16:36:02.057Z,273,2005292.755194792,0.4387054443359375,0.7078094482421875,-0.5731048583984375,2005292.742201792,-0.4818577170372009,-0.8404595255851746,-0.276862770318985,2005292.741095792,176.1496429443359,113.3646240234375,-484.0813598632812,3
2023-02-18T16:36:02.078Z,274,2005292.775214792,0.4010467529296875,0.704620361328125,-0.57720947265625,2005292.762220792,-0.4638129472732544,-0.6896317005157471,-0.3197332620620728,2005292.760718792,175.5556030273438,113.7814025878906,-484.2420043945312,3
2023-02-18T16:36:02.097Z,275,2005292.795233792,0.37689208984375,0.71307373046875,-0.5942230224609375,2005292.782209792,-0.4588107168674469,-0.5023677945137024,-0.3421711921691895,2005292.780371792,175.0680084228516,114.0757751464844,-484.23583984375,3
2023-02-18T16:36:02.118Z,276,2005292.815222792,0.3772125244140625,0.71295166015625,-0.6053009033203125,2005292.802229792,-0.4287779927253723,-0.2708759605884552,-0.3819423019886017,2005292.800024792,174.5900726318359,114.6453247070312,-484.6651611328125,3
2023-02-18T16:36:02.138Z,277,2005292.835242792,0.3888702392578125,0.6998443603515625,-0.5990142822265625,2005292.822248792,-0.3834438025951385,-0.02884895913302898,-0.4359136521816254,2005292.819678792,174.8494415283203,114.7877044677734,-484.4231567382812,3
2023-02-18T16:36:02.158Z,278,2005292.855261792,0.425537109375,0.696807861328125,-0.60430908203125,2005292.842237792,-0.334962010383606,0.09388042241334915,-0.4410796463489532,2005292.839301792,174.6970672607422,115.4184265136719,-484.2184753417969,3
2023-02-18T16:36:02.178Z,279,2005292.875250792,0.4350128173828125,0.6845550537109375,-0.5902099609375,2005292.862257792,-0.2892920076847076,-0.03070251829922199,-0.4198982119560242,2005292.858954792,174.6713714599609,115.7665252685547,-484.0325317382812,3
2023-02-18T16:36:02.198Z,280,2005292.895270792,0.42962646484375,0.665130615234375,-0.5858001708984375,2005292.882276792,-0.2565252482891083,-0.1761143058538437,-0.3946889936923981,2005292.878607792,174.4275817871094,116.1170806884766,-484.0527038574219,3
2023-02-18T16:36:02.218Z,281,2005292.915289792,0.41973876953125,0.636444091796875,-0.5867767333984375,2005292.902265792,-0.2357374280691147,-0.3017036616802216,-0.345901757478714,2005292.898230792,174.0740356445312,116.420654296875,-484.2701416015625,3
2023-02-18T16:36:02.238Z,282,2005292.935258125,0.393402099609375,0.6040496826171875,-0.5697479248046875,2005292.922285792,-0.2494481801986694,-0.242984414100647,-0.3173819482326508,2005292.917883792,173.8487854003906,116.6911468505859,-484.1829223632812,3
2023-02-18T16:36:02.258Z,283,2005292.955278125,0.4036407470703125,0.6119537353515625,-0.571990966796875,2005292.942284125,-0.2986689805984497,-0.04899204522371292,-0.262033998966217,2005292.937517125,173.6490631103516,116.8777770996094,-484.2008972167969,3
2023-02-18T16:36:02.278Z,284,2005292.975297125,0.4593963623046875,0.644439697265625,-0.5823211669921875,2005292.962273125,-0.3650807738304138,0.007003314793109894,-0.1995013952255249,2005292.957170125,173.6450805664062,117.1730041503906,-484.0597839355469,3
2023-02-18T16:36:02.298Z,285,2005292.995286125,0.52935791015625,0.670196533203125,-0.614288330078125,2005292.982293125,-0.3920133113861084,-0.2086757123470306,-0.12838514149189,2005292.976823125,173.4335021972656,117.3655548095703,-483.95556640625,3
2023-02-18T16:36:02.318Z,286,2005293.015306125,0.52020263671875,0.66046142578125,-0.6230621337890625,2005293.002312125,-0.370593786239624,-0.5382062196731567,-0.08810163289308548,2005292.996446125,173.375732421875,117.8713684082031,-483.8224487304688,3
2023-02-18T16:36:02.338Z,287,2005293.035325125,0.471588134765625,0.6464996337890625,-0.59112548828125,2005293.022301125,-0.3450005352497101,-0.6723608374595642,-0.06391985714435577,2005293.016099125,172.9544677734375,117.999755859375,-483.9237060546875,3
2023-02-18T16:36:02.358Z,288,2005293.055345125,0.43902587890625,0.6193389892578125,-0.5519866943359375,2005293.042321125,-0.3458860218524933,-0.6168216466903687,-0.03645255044102669,2005293.035753125,172.6833648681641,118.2435150146484,-484.2059020996094,3
2023-02-18T16:36:02.378Z,289,2005293.075334125,0.460693359375,0.610626220703125,-0.5512542724609375,2005293.062341125,-0.377890557050705,-0.605051577091217,0.04920163378119469,2005293.055406125,172.3506011962891,118.5957489013672,-484.4172973632812,3
2023-02-18T16:36:02.398Z,290,2005293.095354125,0.4986419677734375,0.60662841796875,-0.5987548828125,2005293.082330125,-0.3844672441482544,-0.8280510902404785,0.1366071105003357,2005293.075059125,172.0672912597656,118.8621978759766,-484.5899658203125,3
2023-02-18T16:36:02.418Z,291,2005293.115373125,0.5279998779296875,0.6031341552734375,-0.6286468505859375,2005293.102349125,-0.3460226655006409,-1.293151140213013,0.227997213602066,2005293.094682125,171.4075317382812,118.7637329101562,-484.8731994628906,3
2023-02-18T16:36:02.438Z,292,2005293.135362125,0.4954376220703125,0.6140289306640625,-0.5880584716796875,2005293.122369125,-0.3084201514720917,-1.729381680488586,0.3474788665771484,2005293.114335125,170.9143676757812,118.7602996826172,-485.2523803710938,3
2023-02-18T16:36:02.458Z,293,2005293.155382125,0.3938446044921875,0.608184814453125,-0.5381011962890625,2005293.142388125,-0.2643341720104218,-1.776343584060669,0.4217722713947296,2005293.133989125,169.9728240966797,118.9614410400391,-485.9578247070312,3
2023-02-18T16:36:02.478Z,294,2005293.175401125,0.3325958251953125,0.6250457763671875,-0.5318603515625,2005293.162377125,-0.2341752201318741,-1.546702742576599,0.5208508968353271,2005293.153612125,169.3038177490234,118.9547119140625,-486.7411193847656,3
2023-02-18T16:36:02.498Z,295,2005293.195390125,0.4751129150390625,0.6673736572265625,-0.6145477294921875,2005293.182397125,-0.2148526459932327,-1.753849506378174,0.6811713576316833,2005293.173265125,168.4900970458984,118.568359375,-487.194091796875,3
2023-02-18T16:36:02.518Z,296,2005293.215410125,0.5815887451171875,0.73931884765625,-0.657928466796875,2005293.202416125,-0.1474656164646149,-2.603582620620728,0.8686954379081726,2005293.192918125,167.6225738525391,118.485595703125,-487.736083984375,3
2023-02-18T16:36:02.538Z,297,2005293.235429125,0.479034423828125,0.7589569091796875,-0.6240692138671875,2005293.222405125,-0.02997254580259323,-3.258815288543701,0.8953821659088135,2005293.212541125,166.3848266601562,118.4758605957031,-488.5730590820312,3
2023-02-18T16:36:02.558Z,298,2005293.255418125,0.327789306640625,0.764556884765625,-0.63421630859375,2005293.242425125,0.1109406352043152,-3.088136672973633,0.9456498622894287,2005293.232194125,164.2908935546875,117.9156646728516,-489.6723022460938,3
2023-02-18T16:36:02.578Z,299,2005293.275438125,0.2523345947265625,0.7841339111328125,-0.638214111328125,2005293.262444125,0.2222860604524612,-2.608725309371948,1.149636507034302,2005293.251848125,162.7292175292969,117.7044219970703,-490.5403747558594,3
2023-02-18T16:36:02.598Z,300,2005293.295457125,0.1923980712890625,0.767852783203125,-0.64776611328125,2005293.282433125,0.311792254447937,-1.845133900642395,1.204319000244141,2005293.271501125,161.3596038818359,117.0348205566406,-491.57177734375,3
2023-02-18T16:36:02.618Z,301,2005293.315446125,0.2722625732421875,0.770477294921875,-0.738311767578125,2005293.302453125,0.3625419735908508,-1.203044652938843,1.310209512710571,2005293.291124125,160.4385681152344,116.7401885986328,-492.0043334960938,3
2023-02-18T16:36:02.638Z,302,2005293.335466125,0.38922119140625,0.8347625732421875,-0.780303955078125,2005293.322472125,0.3885216414928436,-1.202752828598022,1.41125214099884,2005293.310777125,160.2994384765625,116.3194885253906,-492.521484375,3
2023-02-18T16:36:02.658Z,303,2005293.355485125,0.3704376220703125,0.8376007080078125,-0.783203125,2005293.342461125,0.4096407890319824,-1.373319745063782,1.346002578735352,2005293.330430125,159.9110565185547,115.6174468994141,-492.9619750976562,3
2023-02-18T16:36:02.678Z,304,2005293.375474125,0.3272705078125,0.82568359375,-0.80975341796875,2005293.362481125,0.4720700681209564,-1.396877527236938,1.375473976135254,2005293.350053125,159.1475524902344,115.3612365722656,-493.7447204589844,3
2023-02-18T16:36:02.698Z,305,2005293.395494125,0.26947021484375,0.80865478515625,-0.7623291015625,2005293.382500125,0.5777967572212219,-1.298230886459351,1.415370464324951,2005293.369707125,158.4798278808594,114.4344024658203,-494.0509643554688,3
2023-02-18T16:36:02.718Z,306,2005293.415513125,0.22222900390625,0.7520904541015625,-0.6983489990234375,2005293.402489125,0.6388073563575745,-0.985670268535614,1.441059947013855,2005293.389360125,158.0805053710938,113.8805236816406,-494.5020751953125,3
2023-02-18T16:36:02.738Z,307,2005293.435533125,0.2391815185546875,0.70233154296875,-0.6889190673828125,2005293.422509125,0.641683042049408,-0.7523680329322815,1.458671092987061,2005293.408983125,157.638916015625,113.4480285644531,-494.62353515625,3
2023-02-18T16:36:02.758Z,308,2005293.455522125,0.2911529541015625,0.6754608154296875,-0.7113494873046875,2005293.442529125,0.6124293208122253,-0.7506353855133057,1.452823638916016,2005293.428636125,157.5966949462891,112.5329437255859,-495.337890625,3
2023-02-18T16:36:02.778Z,309,2005293.475541125,0.281585693359375,0.6375732421875,-0.7245330810546875,2005293.462548125,0.589591920375824,-0.8238709568977356,1.375368714332581,2005293.448289125,157.3019714355469,111.9756011962891,-495.5807495117188,3
2023-02-18T16:36:02.798Z,310,2005293.495561125,0.250885009765625,0.59722900390625,-0.7103271484375,2005293.482537125,0.5629957318305969,-0.7518271207809448,1.27311110496521,2005293.467943125,156.9450988769531,111.38134765625,-495.9538269042969,3
2023-02-18T16:36:02.818Z,311,2005293.515550125,0.29132080078125,0.583404541015625,-0.6869659423828125,2005293.502557125,0.4909175336360931,-0.6111067533493042,1.175109386444092,2005293.487565125,156.5814514160156,110.4989166259766,-496.3104553222656,3
2023-02-18T16:36:02.838Z,312,2005293.535570125,0.322296142578125,0.576995849609375,-0.7208099365234375,2005293.522576125,0.4434149861335754,-0.6048145294189453,1.061789035797119,2005293.507219125,156.5443267822266,109.9055480957031,-496.5098876953125,3
2023-02-18T16:36:02.858Z,313,2005293.555589125,0.3076324462890625,0.576873779296875,-0.7360382080078125,2005293.542565125,0.4226982593536377,-0.6602170467376709,0.9456104636192322,2005293.526872125,155.9759979248047,109.1603698730469,-496.9210205078125,3
2023-02-18T16:36:02.878Z,314,2005293.575578125,0.27606201171875,0.54949951171875,-0.7359466552734375,2005293.562585125,0.4192201793193817,-0.5394485592842102,0.8167539238929749,2005293.546525125,155.4534606933594,108.8863067626953,-497.1648254394531,3
2023-02-18T16:36:02.898Z,315,2005293.595598125,0.2861175537109375,0.5270843505859375,-0.7379302978515625,2005293.582604125,0.4007516801357269,-0.3553447723388672,0.7083156108856201,2005293.566148125,155.3121490478516,108.4807434082031,-497.1664428710938,3
2023-02-18T16:36:02.918Z,316,2005293.615617125,0.3245697021484375,0.51861572265625,-0.749725341796875,2005293.602593125,0.3846281170845032,-0.1860505640506744,0.6044003963470459,2005293.605455125,155.1926727294922,107.5709533691406,-497.633544921875,3
2023-02-18T16:36:02.938Z,317,2005293.635606125,0.3722991943359375,0.5118865966796875,-0.78216552734375,2005293.622613125,0.3969401717185974,-0.1274162828922272,0.5256001353263855,2005293.625108125,155.2393646240234,107.1385955810547,-497.6402282714844,3
2023-02-18T16:36:02.958Z,318,2005293.655626125,0.362701416015625,0.4964141845703125,-0.8071441650390625,2005293.642632125,0.4453998506069183,-0.1928442865610123,0.4535981118679047,2005293.644731125,155.0345458984375,106.7847442626953,-497.8965454101562,3
2023-02-18T16:36:02.978Z,319,2005293.675645125,0.3317718505859375,0.469970703125,-0.801422119140625,2005293.662621125,0.4956052303314209,-0.2363131940364838,0.4076908230781555,2005293.664384125,154.8974456787109,106.1202545166016,-498.0205078125,3
2023-02-18T16:36:02.998Z,320,2005293.695634125,0.3105621337890625,0.43426513671875,-0.7940826416015625,2005293.682641125,0.518308162689209,-0.1804872155189514,0.3754505813121796,2005293.684038125,154.5830383300781,105.9590911865234,-497.9671630859375,3
2023-02-18T16:36:03.018Z,321,2005293.715654125,0.346893310546875,0.4230194091796875,-0.8225860595703125,2005293.702660125,0.5046927332878113,-0.09863816201686859,0.366303950548172,2005293.703691125,154.5868072509766,105.0313110351562,-498.3748779296875,3
2023-02-18T16:36:03.038Z,322,2005293.735673125,0.360107421875,0.407867431640625,-0.854766845703125,2005293.722649125,0.4868013560771942,-0.1821610182523727,0.3727408051490784,2005293.723344125,154.6219940185547,104.6902770996094,-498.3494262695312,3
2023-02-18T16:36:03.058Z,323,2005293.755693125,0.3309783935546875,0.3897857666015625,-0.8520355224609375,2005293.742669125,0.4837999641895294,-0.2444739192724228,0.3765957355499268,2005293.742967125,154.5329742431641,104.3741760253906,-498.3126220703125,3
2023-02-18T16:36:03.078Z,324,2005293.775682125,0.31817626953125,0.3707733154296875,-0.8625640869140625,2005293.762688125,0.4604807794094086,-0.2683574259281158,0.3952330648899078,2005293.762620125,154.3997497558594,103.8805389404297,-498.3583374023438,3
2023-02-18T16:36:03.098Z,325,2005293.795701125,0.323944091796875,0.371673583984375,-0.8834075927734375,2005293.782677125,0.4281787872314453,-0.3081311881542206,0.4110663533210754,2005293.782243125,153.8769073486328,103.5261840820312,-498.3582458496094,3
2023-02-18T16:36:03.118Z,326,2005293.815721125,0.3293304443359375,0.358978271484375,-0.905120849609375,2005293.802697125,0.4209602773189545,-0.2832309007644653,0.4156291484832764,2005293.801896125,153.9521331787109,103.292236328125,-498.58447265625,3
2023-02-18T16:36:03.138Z,327,2005293.835710125,0.330078125,0.3453826904296875,-0.8986358642578125,2005293.822717125,0.4226519167423248,-0.2673672437667847,0.4076508581638336,2005293.821519125,153.559814453125,102.5629272460938,-498.7166137695312,3
2023-02-18T16:36:03.158Z,328,2005293.855729125,0.3195648193359375,0.334686279296875,-0.8854217529296875,2005293.842736125,0.4303196966648102,-0.2807384431362152,0.4072394073009491,2005293.841173125,153.2349090576172,102.3956756591797,-498.7706298828125,3
2023-02-18T16:36:03.178Z,329,2005293.875749125,0.3077239990234375,0.315185546875,-0.866851806640625,2005293.862725125,0.4239419400691986,-0.3114801347255707,0.397682398557663,2005293.860795125,153.4045562744141,101.6149291992188,-498.7643737792969,3
2023-02-18T16:36:03.198Z,330,2005293.895738125,0.2938995361328125,0.309539794921875,-0.8642578125,2005293.882745125,0.397572934627533,-0.3255581259727478,0.3599922657012939,2005293.880449125,152.7925415039062,101.2094268798828,-498.680908203125,3
2023-02-18T16:36:03.218Z,331,2005293.915758125,0.2805328369140625,0.30010986328125,-0.878662109375,2005293.902764125,0.369220107793808,-0.3283725678920746,0.3129581809043884,2005293.900072125,152.6068267822266,101.0758819580078,-499.1428833007812,3
2023-02-18T16:36:03.238Z,332,2005293.935757125,0.273590087890625,0.28076171875,-0.8787689208984375,2005293.922753125,0.3285225033760071,-0.2826032042503357,0.240979328751564,2005293.919725125,152.2976684570312,100.727294921875,-498.9797973632812,3
2023-02-18T16:36:03.258Z,333,2005293.955746125,0.2809295654296875,0.2861480712890625,-0.887451171875,2005293.942753125,0.2909633815288544,-0.2884043753147125,0.1776925027370453,2005293.939328125,151.915771484375,100.4998779296875,-498.8351745605469,3
2023-02-18T16:36:03.278Z,334,2005293.975766125,0.2504119873046875,0.28192138671875,-0.8789825439453125,2005293.962772125,0.2729867994785309,-0.2727963626384735,0.1087901294231415,2005293.958981125,151.8468627929688,100.3177185058594,-499.1044311523438,3
2023-02-18T16:36:03.298Z,335,2005293.995785125,0.22784423828125,0.284271240234375,-0.872711181640625,2005293.982761125,0.2574139535427094,-0.1609468013048172,0.05548829212784767,2005293.978634125,151.6242065429688,99.74569702148438,-499.0335083007812,3
2023-02-18T16:36:03.318Z,336,2005294.015774125,0.238861083984375,0.2844696044921875,-0.8707122802734375,2005294.002781125,0.2475429475307465,-0.0253628809005022,0.0239386223256588,2005293.998288125,151.6537628173828,99.36967468261719,-499.0277709960938,3
2023-02-18T16:36:03.338Z,337,2005294.035794125,0.259246826171875,0.274749755859375,-0.8745574951171875,2005294.022800125,0.2354836314916611,-0.01303963549435139,0.01575898937880993,2005294.017941125,151.6167144775391,99.41914367675781,-499.1814575195312,3
2023-02-18T16:36:03.358Z,338,2005294.055813125,0.257537841796875,0.2586517333984375,-0.8712921142578125,2005294.042789125,0.2144079059362411,-0.102934367954731,0.01615952886641026,2005294.037564125,151.3410186767578,99.18955993652344,-498.9765625,3
2023-02-18T16:36:03.378Z,339,2005294.075802125,0.222900390625,0.24664306640625,-0.8592987060546875,2005294.062809125,0.185202345252037,-0.1711107641458511,0.00956634059548378,2005294.057217125,151.3724060058594,98.94638061523438,-499.0405578613281,3
2023-02-18T16:36:03.398Z,340,2005294.095822125,0.2049560546875,0.24481201171875,-0.8601531982421875,2005294.082828125,0.1347045451402664,-0.09174963086843491,-0.01362846046686172,2005294.076840125,151.13671875,98.96987915039062,-499.0914001464844,3
2023-02-18T16:36:03.418Z,341,2005294.115841125,0.229156494140625,0.25848388671875,-0.875213623046875,2005294.102817125,0.07909961044788361,-0.0035340148024261,-0.03711168095469475,2005294.096493125,151.1026611328125,98.65292358398438,-498.9122314453125,3
2023-02-18T16:36:03.438Z,342,2005294.135861125,0.25555419921875,0.2677459716796875,-0.8823089599609375,2005294.122837125,0.02827984094619751,-0.02201289124786854,-0.06188254058361053,2005294.116146125,151.2584991455078,98.68464660644531,-498.8326110839844,3
2023-02-18T16:36:03.458Z,343,2005294.155850125,0.248291015625,0.2731475830078125,-0.8872222900390625,2005294.142856125,-0.002828543307259679,-0.09760698676109314,-0.08419397473335266,2005294.135769125,151.0696716308594,98.67594909667969,-499.254638671875,3
2023-02-18T16:36:03.478Z,344,2005294.175869125,0.2264404296875,0.27972412109375,-0.88519287109375,2005294.162845125,-0.02221875265240669,-0.08941803127527237,-0.1106365025043488,2005294.155423125,151.0683746337891,98.6900634765625,-499.197509765625,3
2023-02-18T16:36:03.498Z,345,2005294.195889125,0.2197113037109375,0.2871551513671875,-0.89093017578125,2005294.182865125,-0.02128052152693272,0.0004711131914518774,-0.1322464495897293,2005294.175076125,150.9634094238281,98.76805114746094,-499.3114013671875,3
2023-02-18T16:36:03.518Z,346,2005294.215878125,0.2248382568359375,0.285247802734375,-0.8990325927734375,2005294.202885125,-0.02308135107159615,0.09447004646062851,-0.1575081348419189,2005294.194699125,150.9312591552734,98.73968505859375,-499.0746459960938,3
2023-02-18T16:36:03.539Z,347,2005294.235897125,0.2563629150390625,0.2874908447265625,-0.910003662109375,2005294.222904125,-0.02370559610426426,0.09878569841384888,-0.1635356694459915,2005294.214352125,151.3305053710938,98.68997192382812,-499.1329345703125,3
2023-02-18T16:36:03.558Z,348,2005294.255917125,0.2525177001953125,0.2777862548828125,-0.9038238525390625,2005294.242893125,-0.02984844334423542,0.03772927075624466,-0.1709935814142227,2005294.234005125,151.1290588378906,98.69346618652344,-499.1401977539062,3
2023-02-18T16:36:03.579Z,349,2005294.275906125,0.2269134521484375,0.26971435546875,-0.899810791015625,2005294.262913125,-0.03582431003451347,0.004701278172433376,-0.162399023771286,2005294.253659125,151.1398468017578,98.56513977050781,-499.1796875,3
2023-02-18T16:36:03.598Z,350,2005294.295926125,0.218597412109375,0.2582855224609375,-0.8975982666015625,2005294.282932125,-0.04575816541910172,0.04854197055101395,-0.1519999206066132,2005294.273281125,151.1905975341797,99.00088500976562,-499.2606811523438,3
2023-02-18T16:36:03.618Z,351,2005294.315945125,0.234039306640625,0.2628631591796875,-0.91204833984375,2005294.302921125,-0.07229071110486984,0.07704498618841171,-0.1414370238780975,2005294.292935125,151.1205902099609,98.81768798828125,-499.1767578125,3
2023-02-18T16:36:03.638Z,352,2005294.335934125,0.2451324462890625,0.2624664306640625,-0.92486572265625,2005294.322941125,-0.08513087034225464,0.07556186616420746,-0.1372262984514236,2005294.312588125,151.335693359375,99.03306579589844,-499.1171264648438,3
2023-02-18T16:36:03.658Z,353,2005294.355954125,0.2476654052734375,0.27154541015625,-0.9217987060546875,2005294.342960125,-0.09032483398914337,0.03690981492400169,-0.1361586302518845,2005294.332211125,151.302734375,99.01445007324219,-498.9646606445312,3
2023-02-18T16:36:03.679Z,354,2005294.375973125,0.23919677734375,0.270782470703125,-0.9100341796875,2005294.362949125,-0.08055849373340607,0.02003362961113453,-0.12950499355793,2005294.351864125,151.3715362548828,99.33363342285156,-499.1742553710938,3
2023-02-18T16:36:03.698Z,355,2005294.395962125,0.2388916015625,0.26239013671875,-0.9200592041015625,2005294.382969125,-0.07134981453418732,0.01591105572879314,-0.1144474819302559,2005294.371487125,151.5669250488281,99.11198425292969,-499.17919921875,3
2023-02-18T16:36:03.718Z,356,2005294.415982125,0.241241455078125,0.2570343017578125,-0.9226531982421875,2005294.402988125,-0.06719315052032471,-0.000251402409048751,-0.1021878868341446,2005294.391140125,151.5265960693359,99.24122619628906,-499.228515625,3
2023-02-18T16:36:03.738Z,357,2005294.436001125,0.2488250732421875,0.254150390625,-0.927947998046875,2005294.422977125,-0.06979799270629883,0.009893910028040409,-0.09755238890647888,2005294.410794125,151.6135864257812,99.33534240722656,-499.0391845703125,3
2023-02-18T16:36:03.758Z,358,2005294.455990125,0.242889404296875,0.2517852783203125,-0.9292755126953125,2005294.442997125,-0.07399140298366547,-0.01801308803260326,-0.09670550376176834,2005294.430417125,151.6146545410156,99.38287353515625,-499.0756225585938,3
2023-02-18T16:36:03.778Z,359,2005294.476010125,0.2362823486328125,0.257659912109375,-0.9316558837890625,2005294.463016125,-0.06742697954177856,-0.0010993528412655,-0.09526073932647705,2005294.450070125,151.3489227294922,99.22282409667969,-498.9864501953125,3
2023-02-18T16:36:03.798Z,360,2005294.496029125,0.2403411865234375,0.265716552734375,-0.9224853515625,2005294.483005125,-0.05656527355313301,0.03275022283196449,-0.09714546054601669,2005294.469723125,151.3926544189453,99.46110534667969,-499.0511779785156,3
2023-02-18T16:36:03.818Z,361,2005294.516049125,0.2469329833984375,0.269866943359375,-0.92523193359375,2005294.503025125,-0.04904823750257492,0.03918468579649925,-0.09923017770051956,2005294.489346125,151.5228424072266,99.70477294921875,-499.0114440917969,3
2023-02-18T16:36:03.838Z,362,2005294.536038125,0.242401123046875,0.2666778564453125,-0.9160308837890625,2005294.523044125,-0.040678720921278,0.03038640134036541,-0.1135912761092186,2005294.508969125,151.4677581787109,99.62722778320312,-498.8947143554688,3
2023-02-18T16:36:03.858Z,363,2005294.556057125,0.2395477294921875,0.2664031982421875,-0.9271392822265625,2005294.543064125,-0.0321028083562851,0.05632692202925682,-0.124549388885498,2005294.528622125,151.4563446044922,99.59173583984375,-499.0995178222656,3
2023-02-18T16:36:03.878Z,364,2005294.576077125,0.248779296875,0.273590087890625,-0.931915283203125,2005294.563053125,-0.01608203165233135,0.03361015766859055,-0.1305675953626633,2005294.548275125,151.6802520751953,99.49440002441406,-499.11474609375,3
2023-02-18T16:36:03.898Z,365,2005294.596066125,0.2399749755859375,0.268707275390625,-0.9224700927734375,2005294.583073125,-0.003911118488758802,0.049977146089077,-0.1458088606595993,2005294.567929125,151.6668090820312,99.7947998046875,-499.1390991210938,3
2023-02-18T16:36:03.919Z,366,2005294.616085125,0.24212646484375,0.2703857421875,-0.921234130859375,2005294.603092125,-0.00860121101140976,0.08913866430521011,-0.160030409693718,2005294.587582125,151.7318878173828,99.86750793457031,-499.0858764648438,3
2023-02-18T16:36:03.938Z,367,2005294.636105125,0.25750732421875,0.279327392578125,-0.9280853271484375,2005294.623081125,-0.01043293345719576,0.0787840262055397,-0.1630648225545883,2005294.607205125,151.8918762207031,99.68342590332031,-499.2266845703125,3
2023-02-18T16:36:03.959Z,368,2005294.656094125,0.2686767578125,0.283233642578125,-0.9288177490234375,2005294.643101125,-0.0002391518646618351,0.01912762224674225,-0.1559469848871231,2005294.626858125,151.7899627685547,99.61305236816406,-499.0717163085938,3
2023-02-18T16:36:03.978Z,369,2005294.676114125,0.25079345703125,0.2749176025390625,-0.925628662109375,2005294.663120125,0.01251153089106083,-0.03583123534917831,-0.1499333083629608,2005294.666134125,151.8955993652344,99.71844482421875,-499.0496520996094,3
2023-02-18T16:36:03.998Z,370,2005294.696133125,0.233154296875,0.2665252685546875,-0.9204864501953125,2005294.683109125,0.015401859767735,-0.002631203038617969,-0.1461793184280396,2005294.685788125,151.7524261474609,99.49365234375,-499.0719299316406,3
2023-02-18T16:36:04.018Z,371,2005294.716122125,0.24163818359375,0.26971435546875,-0.91937255859375,2005294.703129125,0.01576751098036766,0.07505559921264648,-0.1409589797258377,2005294.705410125,151.9456634521484,99.50689697265625,-498.8698120117188,3
2023-02-18T16:36:04.038Z,372,2005294.736142125,0.2570037841796875,0.269134521484375,-0.9219207763671875,2005294.723148125,0.01445776876062155,0.08575804531574249,-0.1378737092018127,2005294.725064125,151.8393707275391,99.48387145996094,-498.9889526367188,3
2023-02-18T16:36:04.058Z,373,2005294.756161125,0.2702484130859375,0.2728729248046875,-0.928985595703125,2005294.743137125,0.02018196694552898,0.01553262025117874,-0.1233115494251251,2005294.744717125,152.1390380859375,99.44178771972656,-499.248779296875,3
2023-02-18T16:36:04.078Z,374,2005294.776150125,0.258148193359375,0.2709503173828125,-0.924560546875,2005294.763157125,0.02310159057378769,-0.04974864795804024,-0.1163862645626068,2005294.764340125,152.0776672363281,99.48829650878906,-499.0029296875,3
2023-02-18T16:36:04.099Z,375,2005294.796170125,0.2378692626953125,0.2636871337890625,-0.91375732421875,2005294.783176125,0.02885827980935574,-0.03357473760843277,-0.1120554283261299,2005294.783993125,152.0155029296875,99.43939208984375,-499.1469116210938,3
2023-02-18T16:36:04.118Z,376,2005294.816189125,0.23822021484375,0.2585601806640625,-0.9089813232421875,2005294.803165125,0.02804415114223957,0.03949201479554176,-0.1061275005340576,2005294.803646125,152.0599212646484,99.375732421875,-498.9142456054688,3
2023-02-18T16:36:04.139Z,377,2005294.836209125,0.25677490234375,0.2540130615234375,-0.9075775146484375,2005294.823185125,0.01847541332244873,0.07211307436227798,-0.09294325858354568,2005294.823269125,151.9162750244141,99.3514404296875,-498.9744873046875,3
2023-02-18T16:36:04.159Z,378,2005294.856198125,0.2617950439453125,0.25079345703125,-0.9103240966796875,2005294.843204125,0.003946538548916578,0.0349220298230648,-0.08142375200986862,2005294.842923125,152.1340637207031,99.52632141113281,-499.0313110351562,3
2023-02-18T16:36:04.179Z,379,2005294.876217125,0.25439453125,0.247955322265625,-0.9102630615234375,2005294.863193125,-0.007029147353023291,0.005122590344399214,-0.07195248454809189,2005294.862576125,152.1112060546875,99.4393310546875,-499.0926513671875,3
2023-02-18T16:36:04.199Z,380,2005294.896237125,0.248443603515625,0.250946044921875,-0.90185546875,2005294.883213125,-0.02005706541240215,0.004777977243065834,-0.05909234657883644,2005294.882229125,152.5003356933594,99.55270385742188,-499.3215026855469,3
2023-02-18T16:36:04.219Z,381,2005294.916226125,0.2518463134765625,0.24993896484375,-0.8969268798828125,2005294.903232125,-0.04026113823056221,0.02593732438981533,-0.04700878635048866,2005294.901883125,152.1188812255859,99.55549621582031,-499.1021728515625,3
2023-02-18T16:36:04.238Z,382,2005294.936217292,0.252655029296875,0.2471466064453125,-0.88665771484375,2005294.923252125,-0.07063368707895279,0.01976172067224979,-0.03790130838751793,2005294.921505125,152.3562469482422,99.84915161132812,-499.1016845703125,3
2023-02-18T16:36:04.259Z,383,2005294.956237292,0.227996826171875,0.2463226318359375,-0.8814849853515625,2005294.943213292,-0.09686795622110367,0.01778165996074677,-0.03430817276239395,2005294.941131292,152.3179321289062,99.54632568359375,-499.1514282226562,3
2023-02-18T16:36:04.279Z,384,2005294.976226292,0.2043609619140625,0.2398529052734375,-0.866424560546875,2005294.963233292,-0.1220007389783859,0.0991516187787056,-0.04884157329797745,2005294.960784292,152.3925170898438,99.66917419433594,-499.0011596679688,3
2023-02-18T16:36:04.299Z,385,2005294.996245292,0.18487548828125,0.2320404052734375,-0.8536376953125,2005294.983252292,-0.1609920859336853,0.2115527242422104,-0.08369968831539154,2005294.980437292,152.5969696044922,99.8248291015625,-499.0359497070312,3
2023-02-18T16:36:04.319Z,386,2005295.016265292,0.1460113525390625,0.2199554443359375,-0.8279876708984375,2005295.003241292,-0.2263045012950897,0.382511168718338,-0.1566215604543686,2005295.000091292,152.7114562988281,100.2363891601562,-499.0297241210938,3
2023-02-18T16:36:04.339Z,387,2005295.036254292,0.091156005859375,0.194091796875,-0.790130615234375,2005295.023261292,-0.3061495423316956,0.7067289352416992,-0.2852975130081177,2005295.019713292,153.0846405029297,100.1828918457031,-498.8995971679688,3
2023-02-18T16:36:04.359Z,388,2005295.056274292,0.072723388671875,0.17041015625,-0.7553253173828125,2005295.043280292,-0.4154504537582397,1.085478663444519,-0.4257071018218994,2005295.039367292,153.8325500488281,100.4614105224609,-498.5953063964844,3
2023-02-18T16:36:04.379Z,389,2005295.076293292,0.1087646484375,0.149322509765625,-0.71600341796875,2005295.063269292,-0.5498303771018982,1.363554716110229,-0.5758774280548096,2005295.059020292,154.9529113769531,100.9507293701172,-498.7938842773438,3
2023-02-18T16:36:04.399Z,390,2005295.096282292,0.1739044189453125,0.140350341796875,-0.6887969970703125,2005295.083289292,-0.7239646315574646,1.306354284286499,-0.7043911814689636,2005295.078673292,156.2025909423828,101.5197143554688,-498.5307922363281,3
2023-02-18T16:36:04.422Z,391,2005295.116302292,0.1719207763671875,0.149078369140625,-0.6473236083984375,2005295.103308292,-0.9219450950622559,1.116257071495056,-0.8464508652687073,2005295.098296292,157.1990509033203,102.3023529052734,-498.4974670410156,3
2023-02-18T16:36:04.439Z,392,2005295.136321292,0.149078369140625,0.163330078125,-0.6226654052734375,2005295.123297292,-1.096951007843018,1.099007487297058,-0.9900104403495789,2005295.117950292,157.9120941162109,103.5769195556641,-498.0272521972656,3
2023-02-18T16:36:04.459Z,393,2005295.156310292,0.1907806396484375,0.2000274658203125,-0.6316680908203125,2005295.143317292,-1.23770272731781,1.21130633354187,-1.124308824539185,2005295.137603292,158.6365509033203,104.4492034912109,-497.6605224609375,3
2023-02-18T16:36:04.479Z,394,2005295.176330292,0.301483154296875,0.24237060546875,-0.626007080078125,2005295.163336292,-1.355349540710449,1.108056902885437,-1.142035961151123,2005295.157226292,159.4462432861328,106.0060729980469,-497.4586181640625,3
2023-02-18T16:36:04.499Z,395,2005295.196349292,0.32403564453125,0.2807159423828125,-0.60858154296875,2005295.183325292,-1.470936298370361,1.01998507976532,-1.177585363388062,2005295.176879292,160.079345703125,107.5786285400391,-496.97900390625,3
2023-02-18T16:36:04.519Z,396,2005295.216369292,0.2736968994140625,0.3324737548828125,-0.595794677734375,2005295.203345292,-1.537265539169312,1.223266839981079,-1.175400733947754,2005295.196532292,160.7169952392578,109.0618286132812,-496.4295043945312,3
2023-02-18T16:36:04.539Z,397,2005295.236358292,0.35223388671875,0.41021728515625,-0.6615753173828125,2005295.223364292,-1.50836193561554,1.741320610046387,-1.167922616004944,2005295.216186292,161.5856018066406,110.5576629638672,-495.7478637695312,3
2023-02-18T16:36:04.559Z,398,2005295.256377292,0.629486083984375,0.5025482177734375,-0.66162109375,2005295.243353292,-1.416507720947266,1.44140613079071,-0.9871584177017212,2005295.235808292,162.8734283447266,111.92919921875,-495.1077575683594,3
2023-02-18T16:36:04.579Z,399,2005295.276397292,0.6742095947265625,0.4987030029296875,-0.6648712158203125,2005295.263373292,-1.2902911901474,0.692406177520752,-0.893238365650177,2005295.255462292,163.6034088134766,113.8816375732422,-493.9806518554688,3
2023-02-18T16:36:04.599Z,400,2005295.296386292,0.529144287109375,0.46856689453125,-0.5986175537109375,2005295.283392292,-1.203644156455994,0.3142692446708679,-0.8215321898460388,2005295.275115292,163.3513031005859,114.9493865966797,-493.4476928710938,3
2023-02-18T16:36:04.619Z,401,2005295.316405292,0.37762451171875,0.4630889892578125,-0.489227294921875,2005295.303412292,-1.165078639984131,0.657059907913208,-0.7142935991287231,2005295.294768292,163.2389526367188,115.8666839599609,-492.8962707519531,3
2023-02-18T16:36:04.639Z,402,2005295.336425292,0.330474853515625,0.5097198486328125,-0.4512481689453125,2005295.323401292,-1.248307466506958,1.529006242752075,-0.7293740510940552,2005295.314422292,163.6420745849609,117.2746429443359,-492.3229064941406,3
2023-02-18T16:36:04.659Z,403,2005295.356414292,0.4321441650390625,0.6132659912109375,-0.47930908203125,2005295.343420292,-1.308063983917236,2.296176671981812,-0.8036543726921082,2005295.334075292,164.5991973876953,118.26513671875,-491.3368530273438,3
2023-02-18T16:36:04.679Z,404,2005295.376433292,0.5793304443359375,0.6835479736328125,-0.502899169921875,2005295.363440292,-1.250211596488953,2.365316390991211,-0.8896853923797607,2005295.353728292,165.8150482177734,119.6094512939453,-490.2577514648438,3
2023-02-18T16:36:04.709Z,405,2005295.396453292,0.7097930908203125,0.7472991943359375,-0.5149993896484375,2005295.383429292,-1.165041565895081,1.617974758148193,-0.9207956790924072,2005295.373351292,166.6304168701172,120.7465209960938,-488.5731201171875,3
2023-02-18T16:36:04.722Z,406,2005295.416442292,0.68853759765625,0.809417724609375,-0.5067291259765625,2005295.403449292,-1.063099265098572,0.8408981561660767,-0.9597609043121338,2005295.393004292,167.2154693603516,122.1502075195312,-487.6464233398438,3
2023-02-18T16:36:04.742Z,407,2005295.436462292,0.5734710693359375,0.8549652099609375,-0.4519500732421875,2005295.423468292,-1.022298574447632,0.3040408492088318,-0.8865420818328857,2005295.412658292,167.1305999755859,123.2608032226562,-486.7958068847656,3
2023-02-18T16:36:04.759Z,408,2005295.456481292,0.4770965576171875,0.9355010986328125,-0.423492431640625,2005295.443457292,-1.086536645889282,0.2570504248142242,-0.7946028113365173,2005295.432311292,166.8269500732422,124.4083099365234,-486.40869140625,3
2023-02-18T16:36:04.779Z,409,2005295.476470292,0.514373779296875,1.045547485351562,-0.4733123779296875,2005295.463477292,-1.084152102470398,0.2772680819034576,-0.6509016156196594,2005295.451964292,166.3321075439453,125.5491943359375,-485.6820068359375,3
2023-02-18T16:36:04.799Z,410,2005295.496490292,0.5546417236328125,1.1392822265625,-0.496826171875,2005295.483496292,-0.9272700548171997,0.1971500813961029,-0.6538342833518982,2005295.471618292,166.0477294921875,126.6649780273438,-485.2571411132812,3
2023-02-18T16:36:04.819Z,411,2005295.516509292,0.4841156005859375,1.1658935546875,-0.476165771484375,2005295.503485292,-0.7367222309112549,0.05443341284990311,-0.7281782627105713,2005295.491271292,165.5841064453125,127.6487426757812,-484.6705627441406,3
2023-02-18T16:36:04.839Z,412,2005295.536498292,0.3703155517578125,1.162567138671875,-0.519287109375,2005295.523505292,-0.4959066808223724,-0.1635055691003799,-0.6719632148742676,2005295.510924292,165.1694946289062,128.6217956542969,-484.2946166992188,3
2023-02-18T16:36:04.859Z,413,2005295.556518292,0.2671051025390625,1.054473876953125,-0.4583587646484375,2005295.543524292,-0.4746597111225128,0.1461729258298874,-0.7058921456336975,2005295.530578292,164.3759613037109,129.5121459960938,-484.2944946289062,3
2023-02-18T16:36:04.879Z,414,2005295.576537292,0.2912750244140625,1.056060791015625,-0.4463958740234375,2005295.563513292,-0.4519091248512268,0.3103091418743134,-0.6248116493225098,2005295.550231292,164.1759338378906,130.1437225341797,-484.0861206054688,3
2023-02-18T16:36:04.899Z,415,2005295.596557292,0.281982421875,1.04095458984375,-0.4146270751953125,2005295.583533292,-0.4599771797657013,0.4361528158187866,-0.6748871207237244,2005295.569884292,163.9310150146484,130.8859558105469,-483.89501953125,3
2023-02-18T16:36:04.919Z,416,2005295.616546292,0.257354736328125,1.01837158203125,-0.424530029296875,2005295.603552292,-0.4451870620250702,0.4129007458686829,-0.7579694390296936,2005295.589538292,163.5077056884766,131.6303558349609,-483.78125,3
2023-02-18T16:36:04.945Z,417,2005295.636565292,0.223663330078125,1.055862426757812,-0.321502685546875,2005295.623572292,-0.5280030965805054,0.5918891429901123,-0.7673938274383545,2005295.609191292,163.0094146728516,132.4177856445312,-483.4267578125,3
2023-02-18T16:36:04.959Z,418,2005295.656585292,0.19659423828125,1.013702392578125,-0.27984619140625,2005295.643561292,-0.5698983669281006,0.5510280132293701,-0.8066597580909729,2005295.628814292,162.6299896240234,133.1647644042969,-483.4132690429688,3
2023-02-18T16:36:04.979Z,419,2005295.676574292,0.2324676513671875,1.022430419921875,-0.332855224609375,2005295.663580292,-0.553575336933136,0.5884645581245422,-0.8750002384185791,2005295.648467292,162.2099456787109,134.0709533691406,-483.1553344726562,3
2023-02-18T16:36:04.999Z,420,2005295.696593292,0.2065277099609375,1.023513793945312,-0.298736572265625,2005295.683600292,-0.5275242924690247,0.673726499080658,-0.9333862662315369,2005295.668120292,161.5713500976562,134.3814392089844,-482.5663452148438,3
2023-02-18T16:36:05.019Z,421,2005295.716613292,0.151275634765625,0.975921630859375,-0.263885498046875,2005295.703589292,-0.4882287979125977,1.130855202674866,-0.9562865495681763,2005295.687774292,160.7222442626953,135.0584716796875,-481.9544067382812,3
2023-02-18T16:36:05.039Z,422,2005295.736602292,0.1878204345703125,0.9938812255859375,-0.2355499267578125,2005295.723608292,-0.4735025763511658,1.677204489707947,-0.9276109337806702,2005295.707427292,160.3985595703125,135.5860137939453,-481.5812072753906,3
2023-02-18T16:36:05.059Z,423,2005295.756621292,0.3106231689453125,1.045364379882812,-0.2901153564453125,2005295.743628292,-0.4301196932792664,1.467322707176208,-0.7852852344512939,2005295.727080292,159.8738861083984,136.0344543457031,-480.8772277832031,3
2023-02-18T16:36:05.079Z,424,2005295.776641292,0.3536834716796875,1.098602294921875,-0.310211181640625,2005295.763617292,-0.2802558839321136,0.8331217169761658,-0.602373480796814,2005295.766357292,159.5860290527344,136.3922424316406,-479.3728637695312,3
2023-02-18T16:36:05.099Z,425,2005295.796630292,0.361328125,1.021133422851562,-0.2980194091796875,2005295.783637292,-0.2080003321170807,0.5745123028755188,-0.4464869499206543,2005295.786010292,159.6683044433594,136.6652984619141,-479.2066040039062,3
2023-02-18T16:36:05.119Z,426,2005295.816649292,0.416534423828125,1.011520385742188,-0.206298828125,2005295.803656292,-0.2387228310108185,0.4358276426792145,-0.2342745512723923,2005295.805694292,159.2808380126953,136.7786102294922,-478.7874145507812,3
2023-02-18T16:36:05.139Z,427,2005295.836669292,0.4474945068359375,1.06988525390625,-0.171966552734375,2005295.823645292,-0.2293927073478699,0.1844702363014221,-0.1991860717535019,2005295.825316292,159.1645355224609,136.5391845703125,-478.3609619140625,3
2023-02-18T16:36:05.159Z,428,2005295.856658292,0.4125518798828125,1.032882690429688,-0.2150726318359375,2005295.843665292,-0.2651224732398987,-0.262900322675705,-0.1814132034778595,2005295.844970292,158.9583587646484,136.7834167480469,-478.3204956054688,3
2023-02-18T16:36:05.179Z,429,2005295.876678292,0.368377685546875,0.972381591796875,-0.158111572265625,2005295.863684292,-0.2615762054920197,-0.743954598903656,-0.04483964294195175,2005295.864623292,158.55517578125,136.9407348632812,-478.0064697265625,3
2023-02-18T16:36:05.199Z,430,2005295.896697292,0.29730224609375,0.9401702880859375,-0.1095428466796875,2005295.883673292,-0.2989086806774139,-0.7666135430335999,-0.0793885663151741,2005295.884276292,157.9890289306641,137.083251953125,-478.1932373046875,3
2023-02-18T16:36:05.219Z,431,2005295.916717292,0.272491455078125,0.93194580078125,-0.144622802734375,2005295.903693292,-0.3203915953636169,-0.7050092816352844,-0.1101368889212608,2005295.903930292,157.4423217773438,137.2826232910156,-477.8886108398438,3
2023-02-18T16:36:05.239Z,432,2005295.9366945,0.25341796875,1.011306762695312,-0.1746063232421875,2005295.923712292,-0.3178219199180603,-0.7038636207580566,-0.07525693625211716,2005295.923553292,156.9223785400391,137.4853210449219,-477.8285522460938,3
2023-02-18T16:36:05.262Z,433,2005295.9567135,0.1969757080078125,1.0418701171875,-0.1918792724609375,2005295.9436895,-0.2547968626022339,-0.4418455958366394,-0.1005953177809715,2005295.9431945,156.271484375,137.6891326904297,-477.8886108398438,3
2023-02-18T16:36:05.279Z,434,2005295.9767335,0.2147216796875,1.014083862304688,-0.083770751953125,2005295.9637095,-0.3107376396656036,-0.254526823759079,-0.04127473384141922,2005295.9628475,155.8989868164062,137.9907836914062,-477.61767578125,3
2023-02-18T16:36:05.299Z,435,2005295.9967225,0.337188720703125,1.129547119140625,-0.1511993408203125,2005295.9837285,-0.3132764399051666,0.1878737658262253,0.01332246325910091,2005295.9824705,155.9802093505859,138.1717071533203,-477.4146423339844,3
2023-02-18T16:36:05.319Z,436,2005296.0167415,0.359039306640625,1.089813232421875,-0.3275604248046875,2005296.0037485,-0.1717272847890854,0.1000781282782555,-0.04585111141204834,2005296.0021235,155.6880950927734,137.7913818359375,-476.8418273925781,3
2023-02-18T16:36:05.339Z,437,2005296.0367615,0.2105865478515625,1.011642456054688,-0.2720489501953125,2005296.0237375,-0.1002523005008698,-0.2239100635051727,-0.1095592528581619,2005296.0217775,155.4084930419922,138.1309661865234,-477.1969909667969,3
2023-02-18T16:36:05.359Z,438,2005296.0567505,0.163787841796875,1.012451171875,-0.24267578125,2005296.0437565,-0.1291238963603973,-0.0950506180524826,-0.1230718642473221,2005296.0414305,155.3955078125,138.5018615722656,-476.9944152832031,3
2023-02-18T16:36:05.379Z,439,2005296.0767695,0.228363037109375,1.12396240234375,-0.208099365234375,2005296.0637765,-0.1109286472201347,-0.008089351467788219,-0.03538914769887924,2005296.0610835,154.8165283203125,138.6691589355469,-476.8182373046875,3
2023-02-18T16:36:05.399Z,440,2005296.0967895,0.1572418212890625,1.087295532226562,-0.200103759765625,2005296.0837655,-0.05890992283821106,-0.1331969350576401,-0.06835482269525528,2005296.0807375,154.9366912841797,138.6291351318359,-476.9250183105469,3
2023-02-18T16:36:05.422Z,441,2005296.1167785,0.0320281982421875,1.119369506835938,-0.159942626953125,2005296.1037845,0.003531884169206023,0.1120301336050034,-0.1213687732815742,2005296.1003905,154.7960968017578,138.6596527099609,-476.9514465332031,3
2023-02-18T16:36:05.439Z,442,2005296.1367975,0.0144500732421875,1.202163696289062,-0.11566162109375,2005296.1238045,0.02060860581696033,0.3644898235797882,-0.1108839064836502,2005296.1200435,154.6139831542969,138.4548492431641,-476.7160034179688,3
2023-02-18T16:36:05.459Z,443,2005296.1568175,0.131988525390625,1.222732543945312,-0.1266326904296875,2005296.1437935,0.03209055960178375,0.5383161902427673,-0.05091138556599617,2005296.1396975,154.7960815429688,138.3319702148438,-476.4855346679688,3
2023-02-18T16:36:05.479Z,444,2005296.1768065,0.126556396484375,1.2105712890625,-0.10968017578125,2005296.1638135,0.07050958275794983,0.7070484757423401,-0.09954949468374252,2005296.1593505,154.9232330322266,138.3844909667969,-476.70849609375,3
2023-02-18T16:36:05.499Z,445,2005296.1968255,0.1234588623046875,1.173614501953125,-0.1059722900390625,2005296.1838325,0.1124437227845192,0.8296161890029907,-0.09698407351970673,2005296.1790345,154.8214111328125,138.2591247558594,-476.4080200195312,3
2023-02-18T16:36:05.519Z,446,2005296.2168455,0.159820556640625,1.149917602539062,-0.0810699462890625,2005296.2038215,0.1304922252893448,0.7959381341934204,-0.1130237579345703,2005296.1986575,155.2623138427734,137.9108734130859,-476.2361450195312,3
2023-02-18T16:36:05.539Z,447,2005296.2368345,0.146026611328125,1.151443481445312,-0.065277099609375,2005296.2238415,0.1636507213115692,0.827495276927948,-0.135724812746048,2005296.2183105,155.4201507568359,137.6933288574219,-476.1841430664062,3
2023-02-18T16:36:05.559Z,448,2005296.2568545,0.1327362060546875,1.108184814453125,-0.0704803466796875,2005296.2438605,0.2245529443025589,0.9656339883804321,-0.1724362224340439,2005296.2379635,155.6026458740234,137.7124176025391,-475.9007568359375,3
2023-02-18T16:36:05.579Z,449,2005296.2768735,0.1085662841796875,1.0821533203125,-0.05474853515625,2005296.2638495,0.2702679634094238,1.035874605178833,-0.2376679480075836,2005296.2576165,155.8474273681641,137.6921844482422,-475.8561401367188,3
2023-02-18T16:36:05.599Z,450,2005296.2968935,0.07513427734375,1.048614501953125,-0.0103607177734375,2005296.2838695,0.3199252784252167,1.109747529029846,-0.2864448130130768,2005296.2772705,156.1407012939453,137.5231018066406,-475.8505249023438,3
2023-02-18T16:36:05.625Z,451,2005296.3168825,0.139892578125,1.049850463867188,-0.0260009765625,2005296.3038885,0.3809689283370972,1.177025556564331,-0.3011031150817871,2005296.2968935,156.5596618652344,137.4725036621094,-475.8330383300781,3
2023-02-18T16:36:05.639Z,452,2005296.3369015,0.1275634765625,1.04046630859375,-0.0234375,2005296.3238775,0.4174134731292725,1.107852101325989,-0.3748883903026581,2005296.3165465,156.4885864257812,137.0563354492188,-475.9028625488281,3
2023-02-18T16:36:05.663Z,453,2005296.3569215,0.0832366943359375,1.040618896484375,-0.0329437255859375,2005296.3438975,0.4729640781879425,1.122116208076477,-0.4265318810939789,2005296.3361995,156.58984375,137.2580413818359,-475.6844177246094,3
2023-02-18T16:36:05.679Z,454,2005296.3769105,0.0505828857421875,1.022918701171875,-0.009796142578125,2005296.3639165,0.53640216588974,1.222005009651184,-0.4333732724189758,2005296.3558535,156.3000946044922,136.7961883544922,-475.8192443847656,3
2023-02-18T16:36:05.704Z,455,2005296.3969295,0.0940399169921875,1.017044067382812,-0.01141357421875,2005296.3839365,0.5862818360328674,1.415159106254578,-0.440116673707962,2005296.3754755,156.5859527587891,136.4695434570312,-475.8363037109375,3
2023-02-18T16:36:05.719Z,456,2005296.4169495,0.124847412109375,1.008346557617188,-0.0090484619140625,2005296.4039255,0.6482067704200745,1.466185808181763,-0.4784528613090515,2005296.3951295,156.9881744384766,136.3944396972656,-475.9376220703125,3
2023-02-18T16:36:05.745Z,457,2005296.4369385,0.0925445556640625,0.9990081787109375,-4.57763671875e-05,2005296.4239445,0.7211086750030518,1.427316069602966,-0.4958978891372681,2005296.4147825,156.6257019042969,135.9203796386719,-476.0328979492188,3
2023-02-18T16:36:05.760Z,458,2005296.4569575,0.054718017578125,0.972320556640625,0.0313873291015625,2005296.4439645,0.8154314160346985,1.529268026351929,-0.508298397064209,2005296.4344355,156.9238433837891,135.7127990722656,-476.035888671875,3
2023-02-18T16:36:05.784Z,459,2005296.4769775,0.112701416015625,0.97442626953125,0.0137176513671875,2005296.4639535,0.9213722348213196,1.695883393287659,-0.4801612794399261,2005296.4540895,157.1786804199219,135.4922637939453,-476.265380859375,3
2023-02-18T16:36:05.799Z,460,2005296.4969665,0.143829345703125,0.9614715576171875,-0.0064697265625,2005296.4839725,0.969465434551239,1.727328896522522,-0.5025664567947388,2005296.4737115,157.3646545410156,135.5062866210938,-476.302734375,3
2023-02-18T16:36:05.823Z,461,2005296.5169855,0.1302642822265625,0.9478607177734375,-0.0015869140625,2005296.5039925,1.024132490158081,1.720285415649414,-0.5441378951072693,2005296.4933655,157.1129913330078,134.9502410888672,-476.1476440429688,3
2023-02-18T16:36:05.839Z,462,2005296.5370055,0.1551055908203125,0.962371826171875,-0.012237548828125,2005296.5239815,1.032334446907043,1.79114842414856,-0.591754674911499,2005296.5130185,157.3069152832031,134.6392517089844,-476.3823547363281,3
2023-02-18T16:36:05.863Z,463,2005296.5569945,0.23126220703125,0.9883575439453125,-0.044158935546875,2005296.5440015,0.9992896914482117,1.865228533744812,-0.6615419983863831,2005296.5326715,157.6786041259766,134.3507690429688,-476.2669372558594,3
2023-02-18T16:36:05.879Z,464,2005296.5770135,0.1853790283203125,1.011199951171875,-0.0794830322265625,2005296.5640205,0.9623295068740845,1.787133932113647,-0.7998013496398926,2005296.5523255,157.7176971435547,134.0204315185547,-476.0743408203125,3
2023-02-18T16:36:05.904Z,465,2005296.5970335,0.1006927490234375,0.9505767822265625,-0.112640380859375,2005296.5840095,0.9104351401329041,1.883960843086243,-0.8740390539169312,2005296.5719485,157.5227813720703,134.0904541015625,-476.075927734375,3
2023-02-18T16:36:05.919Z,466,2005296.6170225,0.1077117919921875,0.8933258056640625,-0.1333770751953125,2005296.6040295,0.8673681020736694,2.135112524032593,-0.905207633972168,2005296.5916015,157.3697204589844,133.6958618164062,-475.986083984375,3
2023-02-18T16:36:05.943Z,467,2005296.6370425,0.1617584228515625,0.8585968017578125,-0.1262054443359375,2005296.6240485,0.7860522270202637,2.367577791213989,-0.9567885398864746,2005296.6112545,157.5065612792969,133.6786499023438,-475.6689453125,3
2023-02-18T16:36:05.959Z,468,2005296.6570615,0.1793060302734375,0.883270263671875,-0.1039581298828125,2005296.6440375,0.7140834927558899,2.340993165969849,-1.051035165786743,2005296.6308775,157.6678771972656,133.4525451660156,-475.3640747070312,3
2023-02-18T16:36:05.983Z,469,2005296.6770815,0.180206298828125,0.90557861328125,-0.116912841796875,2005296.6640575,0.6659167408943176,2.452791929244995,-1.187580466270447,2005296.6505305,158.0730133056641,133.3912200927734,-475.2073974609375,3
2023-02-18T16:36:06.000Z,470,2005296.6970705,0.185089111328125,0.879547119140625,-0.157958984375,2005296.6840765,0.6397091150283813,2.496266841888428,-1.296566605567932,2005296.6701535,158.1188812255859,133.2496795654297,-474.809326171875,3
2023-02-18T16:36:06.023Z,471,2005296.7170895,0.1791534423828125,0.8702392578125,-0.1707305908203125,2005296.7040655,0.5977613925933838,2.491111516952515,-1.369778037071228,2005296.6898065,157.7697143554688,133.2783355712891,-474.0691528320312,3
2023-02-18T16:36:06.039Z,472,2005296.7371095,0.1387481689453125,0.88037109375,-0.1445770263671875,2005296.7240855,0.5530424118041992,2.497835397720337,-1.432367324829102,2005296.7094605,157.8382415771484,133.2402801513672,-473.5565490722656,3
2023-02-18T16:36:06.063Z,473,2005296.7570985,0.0968475341796875,0.8967742919921875,-0.1031951904296875,2005296.7441045,0.5401585698127747,2.572618007659912,-1.449340462684631,2005296.7290835,157.9280090332031,133.0196380615234,-473.0785217285156,3
2023-02-18T16:36:06.079Z,474,2005296.7771175,0.11590576171875,0.8977508544921875,-0.1097564697265625,2005296.7641245,0.5488404631614685,2.703655481338501,-1.448836326599121,2005296.7487365,157.8456573486328,133.6867980957031,-472.6187133789062,3
2023-02-18T16:36:06.103Z,475,2005296.7971375,0.1754608154296875,0.8973846435546875,-0.1170806884765625,2005296.7841135,0.5250781774520874,2.691720724105835,-1.461913466453552,2005296.7683595,157.557373046875,133.7429656982422,-472.0747680664062,3
