loggingTime(txt),loggingSample(N),accelerometerTimestamp_sinceReboot(s),accelerometerAccelerationX(G),accelerometerAccelerationY(G),accelerometerAccelerationZ(G),gyroTimestamp_sinceReboot(s),gyroRotationX(rad/s),gyroRotationY(rad/s),gyroRotationZ(rad/s),magnetometerTimestamp_sinceReboot(s),magnetometerX(µT),magnetometerY(µT),magnetometerZ(µT),label(N)
2023-02-26T16:57:50.152Z,1,2367459.314948875,0.0729522705078125,-0.41070556640625,-0.9018096923828125,2367459.304938875,-0.1227552145719528,-0.05743639543652534,0.158864751458168,2367459.304138875,140.5769348144531,106.3910217285156,-487.1831970214844,0
2023-02-26T16:57:50.162Z,2,2367459.334937875,0.065887451171875,-0.4105072021484375,-0.90240478515625,2367459.324927875,0.001162736094556749,-0.1299311071634293,0.08989553153514862,2367459.323761875,140.6577911376953,106.3029937744141,-487.072509765625,0
2023-02-26T16:57:50.180Z,3,2367459.354957875,0.0736083984375,-0.440185546875,-0.897613525390625,2367459.344947875,-0.07903196662664413,-0.2659235596656799,0.1059967428445816,2367459.343383875,140.3230743408203,106.3385009765625,-487.0244140625,0
2023-02-26T16:57:50.200Z,4,2367459.374976875,0.0641632080078125,-0.4188995361328125,-0.8949127197265625,2367459.364966875,-0.05408214405179024,-0.3865799307823181,0.1268764585256577,2367459.363006875,140.0978393554688,106.3490295410156,-487.2831420898438,0
2023-02-26T16:57:50.220Z,5,2367459.394965875,0.0670166015625,-0.4377899169921875,-0.9123687744140625,2367459.384955875,0.07429181039333344,-0.4258753955364227,0.1113283857703209,2367459.382629875,139.4708557128906,106.2955474853516,-486.9605407714844,0
2023-02-26T16:57:50.241Z,6,2367459.414985875,0.046661376953125,-0.4447174072265625,-0.9254913330078125,2367459.404975875,0.1118546277284622,-0.4397901594638824,0.1110599413514137,2367459.402252875,139.3189544677734,105.9910888671875,-487.1441650390625,0
2023-02-26T16:57:50.260Z,7,2367459.435004875,0.037994384765625,-0.4237060546875,-0.8740081787109375,2367459.424994875,0.06456700712442398,-0.4560301005840302,0.1246404647827148,2367459.421875875,138.7937164306641,105.8521575927734,-487.105712890625,0
2023-02-26T16:57:50.283Z,8,2367459.454993875,0.0174407958984375,-0.405792236328125,-0.879638671875,2367459.445014875,0.03591538965702057,-0.4717848300933838,0.1131321489810944,2367459.441497875,138.259765625,105.7889709472656,-487.1124267578125,0
2023-02-26T16:57:50.300Z,9,2367459.475013875,-0.003692626953125,-0.42059326171875,-0.9080810546875,2367459.465003875,-0.04524817317724228,-0.5241234302520752,0.121670238673687,2367459.461120875,138.1432647705078,105.7103576660156,-487.1212158203125,0
2023-02-26T16:57:50.328Z,10,2367459.495032875,-0.0064239501953125,-0.416778564453125,-0.9225616455078125,2367459.485023875,-0.1676177531480789,-0.5476875901222229,0.1058705076575279,2367459.480743875,137.3447418212891,105.7969665527344,-487.0573120117188,0
2023-02-26T16:57:50.340Z,11,2367459.515021875,-0.0172882080078125,-0.4238739013671875,-0.872802734375,2367459.505042875,-0.1759278923273087,-0.525119960308075,0.07458102703094482,2367459.500366875,137.0567626953125,106.0149841308594,-486.9923400878906,0
2023-02-26T16:57:50.368Z,12,2367459.535041875,-0.01080322265625,-0.4002838134765625,-0.8213043212890625,2367459.525031875,-0.08953041583299637,-0.2915122807025909,0.06161649152636528,2367459.519958875,136.7215270996094,106.1103820800781,-486.6971435546875,0
2023-02-26T16:57:50.380Z,13,2367459.555060875,-0.0077667236328125,-0.3967742919921875,-0.8211669921875,2367459.545051875,-0.03190307319164276,-0.04078817740082741,0.0276848915964365,2367459.539581875,136.4157104492188,106.0711212158203,-486.9949951171875,0
2023-02-26T16:57:50.410Z,14,2367459.575080875,-0.0042572021484375,-0.4111785888671875,-0.856475830078125,2367459.565070875,-0.04696617648005486,0.02275058627128601,-0.02085601352155209,2367459.559204875,136.5191040039062,106.1730804443359,-486.8330993652344,0
2023-02-26T16:57:50.420Z,15,2367459.595069875,-0.0048675537109375,-0.41424560546875,-0.8647003173828125,2367459.585059875,-0.04549477994441986,0.01678031124174595,-0.04745007306337357,2367459.578826875,136.7019348144531,106.1991729736328,-487.1531982421875,0
2023-02-26T16:57:50.448Z,16,2367459.615088875,-0.0027008056640625,-0.41015625,-0.879638671875,2367459.605079875,-0.03161225467920303,-0.008375109173357487,-0.07798720896244049,2367459.598449875,136.6118774414062,106.4664154052734,-486.7891235351562,0
2023-02-26T16:57:50.460Z,17,2367459.635108875,-0.001556396484375,-0.414794921875,-0.880279541015625,2367459.625098875,-0.0607680082321167,-0.09868449717760086,-0.08159872144460678,2367459.618042875,136.5198669433594,106.3029937744141,-486.6837768554688,0
2023-02-26T16:57:50.487Z,18,2367459.655097875,-0.0025787353515625,-0.4281768798828125,-0.9021453857421875,2367459.645087875,-0.07983837276697159,-0.218250572681427,-0.0427999272942543,2367459.637664875,136.3934020996094,106.5399017333984,-486.7264709472656,0
2023-02-26T16:57:50.500Z,19,2367459.675117875,-0.0181732177734375,-0.427978515625,-0.8993072509765625,2367459.665107875,-0.08936689794063568,-0.2190282195806503,-0.0104164220392704,2367459.657287875,136.1883087158203,106.4793090820312,-486.8856201171875,0
2023-02-26T16:57:50.527Z,20,2367459.695136875,-0.037994384765625,-0.4144134521484375,-0.9015960693359375,2367459.685126875,-0.06865229457616806,-0.08821268379688263,-3.195793397026137e-06,2367459.676910875,136.2842712402344,106.4706268310547,-486.8369140625,0
2023-02-26T16:57:50.540Z,21,2367459.715101042,-0.040618896484375,-0.4147491455078125,-0.89593505859375,2367459.705122042,0.008167648687958717,0.02186987921595573,0.01580905728042126,2367459.696478042,136.1172637939453,106.3936920166016,-486.6370239257812,0
2023-02-26T16:57:50.566Z,22,2367459.735121042,-0.0335540771484375,-0.4189300537109375,-0.9071807861328125,2367459.725111042,0.1005029082298279,0.08295160531997681,0.02077585272490978,2367459.716101042,136.2314605712891,106.5143127441406,-486.6292724609375,0
2023-02-26T16:57:50.580Z,23,2367459.755140042,-0.030853271484375,-0.4270782470703125,-0.9066619873046875,2367459.745130042,0.1244452521204948,0.1028230488300323,0.01555605605244637,2367459.735724042,136.1290130615234,106.1486053466797,-486.9937133789062,0
2023-02-26T16:57:50.609Z,24,2367459.775129042,-0.0255584716796875,-0.4302215576171875,-0.900848388671875,2367459.765150042,0.07478901743888855,0.08703237026929855,-0.0033907366450876,2367459.755347042,136.1249694824219,106.1197357177734,-486.7965698242188,0
2023-02-26T16:57:50.621Z,25,2367459.795149042,-0.02203369140625,-0.4395904541015625,-0.913116455078125,2367459.785139042,0.01447987277060747,0.0562845766544342,-0.02724946476519108,2367459.774969042,136.4809112548828,106.2857818603516,-487.1853637695312,0
2023-02-26T16:57:50.644Z,26,2367459.815168042,-0.0246734619140625,-0.4366455078125,-0.9103240966796875,2367459.805158042,0.008042479865252972,0.005561479367315769,-0.01757526583969593,2367459.794562042,136.4343109130859,106.0404815673828,-487.0425415039062,0
2023-02-26T16:57:50.660Z,27,2367459.835157042,-0.0230865478515625,-0.430755615234375,-0.90814208984375,2367459.825178042,0.05635222047567368,-0.02638313733041286,-0.003791542490944266,2367459.814185042,136.2710876464844,106.0768280029297,-486.8081665039062,0
2023-02-26T16:57:50.686Z,28,2367459.855177042,-0.0178680419921875,-0.4330291748046875,-0.895965576171875,2367459.845167042,0.1460597366094589,-0.06720886379480362,0.01941604167222977,2367459.833807042,136.2159881591797,105.7647399902344,-486.9451904296875,0
2023-02-26T16:57:50.700Z,29,2367459.875196042,-0.0230255126953125,-0.4313507080078125,-0.8891448974609375,2367459.865187042,0.287030428647995,-0.07772248983383179,0.02987267822027206,2367459.853400042,136.5414886474609,105.7893676757812,-487.03173828125,0
2023-02-26T16:57:50.729Z,30,2367459.895216042,-0.0258941650390625,-0.44110107421875,-0.8795928955078125,2367459.885206042,0.3628844618797302,-0.05719404667615891,0.0602462962269783,2367459.873022042,136.3892822265625,105.8096466064453,-487.2610473632812,0
2023-02-26T16:57:50.740Z,31,2367459.915205042,-0.0220947265625,-0.4470062255859375,-0.8931121826171875,2367459.905195042,0.3253141939640045,-0.09136879444122314,0.08252896368503571,2367459.892615042,136.3771667480469,105.3358612060547,-487.0455932617188,0
2023-02-26T16:57:50.767Z,32,2367459.935224042,-0.020416259765625,-0.455657958984375,-0.8833160400390625,2367459.925215042,0.1681336164474487,-0.159615233540535,0.05289144441485405,2367459.912238042,136.6408081054688,105.0778198242188,-487.1934814453125,0
2023-02-26T16:57:50.780Z,33,2367459.955244042,-0.0386962890625,-0.448486328125,-0.8569183349609375,2367459.945234042,0.03685575351119041,-0.04489929601550102,0.02614984475076199,2367459.931830042,136.3862762451172,104.9267425537109,-487.1224975585938,0
2023-02-26T16:57:50.810Z,34,2367459.975233042,-0.0371551513671875,-0.4511566162109375,-0.85699462890625,2367459.965223042,0.02883564308285713,-0.003845071885734797,0.03441469743847847,2367459.951422042,136.1256256103516,104.7546081542969,-487.29150390625,0
2023-02-26T16:57:50.820Z,35,2367459.995252042,-0.0321044921875,-0.443359375,-0.8549346923828125,2367459.985243042,0.156311571598053,0.02669792249798775,0.07376024127006531,2367459.971014042,136.2977752685547,104.8522033691406,-487.4470825195312,0
2023-02-26T16:57:50.844Z,36,2367460.015272042,-0.036285400390625,-0.4423980712890625,-0.89288330078125,2367460.005262042,0.2421838790178299,-0.06957428157329559,0.07758799940347672,2367459.990637042,136.3685302734375,104.7121887207031,-487.3767395019531,0
2023-02-26T16:57:50.860Z,37,2367460.035261042,-0.0199127197265625,-0.4884185791015625,-0.898773193359375,2367460.025282042,0.2376607656478882,-0.1902021616697311,0.1208883374929428,2367460.010260042,135.9985656738281,104.5690155029297,-487.4310302734375,0
2023-02-26T16:57:50.880Z,38,2367460.055281042,-0.025482177734375,-0.494598388671875,-0.8531494140625,2367460.045271042,0.2024708092212677,-0.08068525791168213,0.242808923125267,2367460.029883042,135.7517242431641,104.3162231445312,-487.3277587890625,0
2023-02-26T16:57:50.900Z,39,2367460.075300042,-0.0273590087890625,-0.4819793701171875,-0.8727569580078125,2367460.065290042,0.2213781923055649,-0.09679099172353745,0.3503164649009705,2367460.049475042,135.9005432128906,104.2855224609375,-487.5870971679688,0
2023-02-26T16:57:50.920Z,40,2367460.095289042,-0.0167388916015625,-0.5156402587890625,-0.8394622802734375,2367460.085310042,0.2050085365772247,0.2775788903236389,0.146711140871048,2367460.069098042,135.6515197753906,104.0598449707031,-487.600341796875,0
2023-02-26T16:57:50.940Z,41,2367460.115309042,-0.0049285888671875,-0.3894500732421875,-0.8715362548828125,2367460.105299042,0.1486757546663284,0.3537767231464386,-0.02258387207984924,2367460.088721042,135.6624145507812,104.1857452392578,-488.0740966796875,0
2023-02-26T16:57:50.960Z,42,2367460.135328042,-0.0213165283203125,-0.4186859130859375,-0.7808074951171875,2367460.125318042,0.1706843972206116,0.479872852563858,-0.2911074757575989,2367460.108313042,136.1787414550781,104.2128143310547,-487.9154052734375,0
2023-02-26T16:57:50.980Z,43,2367460.155348042,-0.0274810791015625,-0.441436767578125,-0.8727569580078125,2367460.145338042,0.2007602602243423,0.6104031801223755,-0.4225126206874847,2367460.127936042,136.8480529785156,104.2065734863281,-488.30419921875,0
2023-02-26T16:57:51.000Z,44,2367460.175337042,0.0049591064453125,-0.5069732666015625,-0.9234466552734375,2367460.165327042,0.2127428948879242,0.3996901512145996,-0.3234766125679016,2367460.147559042,137.2178955078125,103.85009765625,-488.9287109375,0
2023-02-26T16:57:51.020Z,45,2367460.195356042,0.0071868896484375,-0.511138916015625,-0.908660888671875,2367460.185346042,0.1414426118135452,0.2227385342121124,-0.2247561514377594,2367460.167181042,137.6730651855469,103.9236907958984,-489.1250610351562,0
2023-02-26T16:57:51.041Z,46,2367460.215376042,-0.0200653076171875,-0.468902587890625,-0.802978515625,2367460.205366042,-0.02093857154250145,0.1045141592621803,-0.2788739800453186,2367460.206396042,137.7764587402344,104.2991027832031,-489.6441040039062,0
2023-02-26T16:57:51.060Z,47,2367460.235365042,-0.0088043212890625,-0.5072174072265625,-0.719085693359375,2367460.225355042,-0.2454675436019897,0.268197625875473,-0.3520914614200592,2367460.226019042,137.9746398925781,104.5526428222656,-489.9405517578125,0
2023-02-26T16:57:51.080Z,48,2367460.255384042,0.01531982421875,-0.5129852294921875,-0.83856201171875,2367460.245375042,-0.3699719309806824,0.3020448088645935,-0.2607991099357605,2367460.245642042,138.0549011230469,104.9547424316406,-489.7090454101562,0
2023-02-26T16:57:51.100Z,49,2367460.275404042,0.019500732421875,-0.5082244873046875,-0.8790283203125,2367460.265394042,-0.3267983496189117,0.16847263276577,-0.1499000191688538,2367460.265265042,138.2267913818359,105.7637481689453,-490.1193542480469,0
2023-02-26T16:57:51.120Z,50,2367460.295393042,0.019134521484375,-0.4742584228515625,-0.887725830078125,2367460.285414042,-0.217912882566452,0.3222582042217255,-0.03515239432454109,2367460.284888042,138.4012908935547,105.8346405029297,-490.1209106445312,0
2023-02-26T16:57:51.140Z,51,2367460.315412042,0.0567779541015625,-0.4268646240234375,-0.96539306640625,2367460.305403042,-0.1621018201112747,-0.08230552822351456,-0.0579378679394722,2367460.304480042,138.6173706054688,105.8693695068359,-490.234130859375,0
2023-02-26T16:57:51.162Z,52,2367460.335432042,0.0326080322265625,-0.472503662109375,-0.8520355224609375,2367460.325422042,-0.1198246702551842,-0.2789850234985352,-0.1454205811023712,2367460.324103042,138.7166595458984,106.3684234619141,-490.3623962402344,0
2023-02-26T16:57:51.180Z,53,2367460.355421042,0.025299072265625,-0.4794921875,-0.8494110107421875,2367460.345442042,-0.134865403175354,-0.1068553403019905,-0.1601047217845917,2367460.343726042,138.2081604003906,106.5003967285156,-490.2567749023438,0
2023-02-26T16:57:51.204Z,54,2367460.375440042,0.014373779296875,-0.4771881103515625,-0.8463134765625,2367460.365431042,-0.1809394210577011,0.1254290342330933,-0.165274441242218,2367460.363348042,138.1385803222656,106.7823028564453,-490.5484008789062,0
2023-02-26T16:57:51.221Z,55,2367460.395460042,0.0679168701171875,-0.487945556640625,-0.9256134033203125,2367460.385450042,-0.1684049963951111,0.1430434435606003,-0.08349702507257462,2367460.382971042,138.4518737792969,106.7313537597656,-490.2518310546875,0
2023-02-26T16:57:51.246Z,56,2367460.415449042,0.05401611328125,-0.478271484375,-0.8940277099609375,2367460.405470042,-0.08237183839082718,-0.2269796133041382,-0.01912948675453663,2367460.402594042,138.4317779541016,106.6969757080078,-490.0685424804688,0
2023-02-26T16:57:51.260Z,57,2367460.435468042,0.035614013671875,-0.4821014404296875,-0.78826904296875,2367460.425459042,-0.03476676717400551,0.1165559068322182,0.04227209091186523,2367460.422217042,138.1641998291016,106.3166809082031,-490.0765991210938,0
2023-02-26T16:57:51.286Z,58,2367460.455488042,0.0573883056640625,-0.4675140380859375,-0.83526611328125,2367460.445478042,-0.07239217311143875,0.2569330036640167,0.04244625940918922,2367460.441840042,138.4779510498047,106.0736694335938,-490.0643005371094,0
2023-02-26T16:57:51.300Z,59,2367460.475508042,0.05877685546875,-0.4694061279296875,-0.896575927734375,2367460.465498042,-0.1621718555688858,0.04242149367928505,-0.0002913498319685459,2367460.461432042,138.6452789306641,105.9133758544922,-490.0331420898438,0
2023-02-26T16:57:51.331Z,60,2367460.495497042,0.0533294677734375,-0.459716796875,-0.8924713134765625,2367460.485487042,-0.210795596241951,-0.1262455582618713,0.01264096051454544,2367460.481055042,138.6234588623047,105.5212707519531,-489.9304809570312,0
2023-02-26T16:57:51.341Z,61,2367460.515516042,0.0497894287109375,-0.446258544921875,-0.8535003662109375,2367460.505506042,-0.2123468816280365,-0.01036582142114639,-0.01968422159552574,2367460.500677042,138.4686126708984,105.6686706542969,-489.5584106445312,0
2023-02-26T16:57:51.374Z,62,2367460.535536042,0.0510101318359375,-0.44622802734375,-0.872772216796875,2367460.525526042,-0.2139019072055817,0.0701868087053299,0.001369397388771176,2367460.520300042,138.6459655761719,105.7903900146484,-489.4502258300781,0
2023-02-26T16:57:51.381Z,63,2367460.555525042,0.0567626953125,-0.4455108642578125,-0.90093994140625,2367460.545515042,-0.1915984600782394,-0.03726454824209213,0.0221503097563982,2367460.539923042,138.6471557617188,106.0500946044922,-489.6410217285156,0
2023-02-26T16:57:51.405Z,64,2367460.575544042,0.0425567626953125,-0.4469451904296875,-0.86602783203125,2367460.565534042,-0.1671543717384338,-0.0556640625,0.02631043270230293,2367460.559546042,138.7830657958984,106.2020111083984,-489.7467651367188,0
2023-02-26T16:57:51.421Z,65,2367460.595564042,0.0419464111328125,-0.437469482421875,-0.8628997802734375,2367460.585554042,-0.1555869281291962,0.04995770752429962,0.01682478561997414,2367460.579169042,138.6089324951172,106.6969909667969,-489.8959350585938,0
2023-02-26T16:57:51.448Z,66,2367460.615553042,0.03851318359375,-0.42523193359375,-0.8694305419921875,2367460.605573042,-0.1252434104681015,0.1618200540542603,0.02313860878348351,2367460.598791042,138.8713531494141,107.1591339111328,-490.0672912597656,0
2023-02-26T16:57:51.461Z,67,2367460.635572042,0.0400543212890625,-0.420135498046875,-0.89300537109375,2367460.625562042,-0.09553797543048859,0.2167743891477585,-0.001155012985691428,2367460.618384042,139.0268707275391,107.3077087402344,-490.0628051757812,0
2023-02-26T16:57:51.485Z,68,2367460.655592042,0.0369873046875,-0.417266845703125,-0.9084014892578125,2367460.645582042,-0.05557990446686745,0.1292296200990677,-0.008142614737153053,2367460.638007042,139.0997619628906,107.6570434570312,-490.3794555664062,0
2023-02-26T16:57:51.501Z,69,2367460.675581042,0.033843994140625,-0.4148101806640625,-0.893096923828125,2367460.665602042,-0.04198073968291283,0.06179652363061905,0.007811051327735186,2367460.657629042,139.1553649902344,107.7588043212891,-490.3204956054688,0
2023-02-26T16:57:51.526Z,70,2367460.695600042,0.0452728271484375,-0.4155426025390625,-0.8585205078125,2367460.685591042,-0.05553862452507019,0.1717842817306519,-0.02351997420191765,2367460.677252042,139.3482666015625,107.9514007568359,-490.3683471679688,0
2023-02-26T16:57:51.541Z,71,2367460.715619417,0.061370849609375,-0.4238739013671875,-0.857147216796875,2367460.705609417,-0.08437240123748779,0.2779056429862976,-0.0607733353972435,2367460.696874417,139.3421936035156,107.2664642333984,-490.0973815917969,0
2023-02-26T16:57:51.566Z,72,2367460.735638417,0.0740814208984375,-0.4451141357421875,-0.9227142333984375,2367460.725629417,-0.1218068599700928,0.2066929936408997,-0.0489925779402256,2367460.716497417,139.7701568603516,107.0592803955078,-490.1197509765625,0
2023-02-26T16:57:51.581Z,73,2367460.755627417,0.095184326171875,-0.467010498046875,-0.93353271484375,2367460.745618417,-0.07375890761613846,-0.009878729470074177,0.05689657106995583,2367460.736120417,139.9913024902344,106.8439178466797,-489.6767578125,0
2023-02-26T16:57:51.611Z,74,2367460.775647417,0.088287353515625,-0.4456024169921875,-0.906829833984375,2367460.765637417,0.01543248537927866,-0.1046611666679382,0.09303007274866104,2367460.755712417,140.0201568603516,106.7142028808594,-489.4432678222656,0
2023-02-26T16:57:51.621Z,75,2367460.795666417,0.0669097900390625,-0.4256134033203125,-0.8986053466796875,2367460.785657417,0.04761945083737373,-0.1242939904332161,0.07161879539489746,2367460.775335417,139.9435577392578,106.5028839111328,-489.6619567871094,0
2023-02-26T16:57:51.645Z,76,2367460.815655417,0.0589599609375,-0.428619384765625,-0.88848876953125,2367460.805646417,0.07159429043531418,-0.09340504556894302,0.06099437922239304,2367460.794957417,139.8229217529297,106.4565582275391,-489.6895141601562,0
2023-02-26T16:57:51.661Z,77,2367460.835675417,0.05517578125,-0.4241180419921875,-0.8793792724609375,2367460.825665417,0.09578937292098999,-0.04436320438981056,0.0355292335152626,2367460.814580417,139.6740112304688,106.6645660400391,-490.1366577148438,0
2023-02-26T16:57:51.686Z,78,2367460.855695417,0.0528106689453125,-0.424774169921875,-0.8879241943359375,2367460.845685417,0.1339189112186432,-0.01060657203197479,0.02342463284730911,2367460.834203417,139.7874755859375,106.2501373291016,-489.9386596679688,0
2023-02-26T16:57:51.701Z,79,2367460.875684417,0.0453033447265625,-0.430633544921875,-0.8807830810546875,2367460.865674417,0.1456421464681625,0.06258801370859146,0.007015831302851439,2367460.853826417,139.5995178222656,105.9168548583984,-489.869140625,0
2023-02-26T16:57:51.733Z,80,2367460.895703417,0.04498291015625,-0.4229583740234375,-0.890167236328125,2367460.885693417,0.09289105981588364,0.08719003200531006,-0.004047205671668053,2367460.873449417,139.8342895507812,105.6953582763672,-489.708984375,0
2023-02-26T16:57:51.741Z,81,2367460.915723417,0.0485076904296875,-0.4267120361328125,-0.90228271484375,2367460.905713417,0.01078207418322563,-0.006943659856915474,-0.02345206215977669,2367460.893072417,139.9085693359375,105.1918182373047,-489.5609130859375,0
2023-02-26T16:57:51.768Z,82,2367460.935712417,0.060150146484375,-0.4470367431640625,-0.8900604248046875,2367460.925732417,-0.0266028493642807,-0.08777778595685959,-0.02860474586486816,2367460.912694417,139.8468933105469,105.4033355712891,-489.3718872070312,0
2023-02-26T16:57:51.781Z,83,2367460.955731417,0.0676116943359375,-0.4532928466796875,-0.8816680908203125,2367460.945721417,-0.01869033090770245,-0.1068582758307457,0.02537699602544308,2367460.932317417,139.7736511230469,105.2856140136719,-489.4008178710938,0
2023-02-26T16:57:51.811Z,84,2367460.975751417,0.064453125,-0.4495086669921875,-0.8674163818359375,2367460.965741417,0.01758725009858608,-0.09507085382938385,0.03417101874947548,2367460.951909417,139.6669921875,105.1124267578125,-489.0670776367188,0
2023-02-26T16:57:51.821Z,85,2367460.995740417,0.06439208984375,-0.44561767578125,-0.8780059814453125,2367460.985760417,0.023608123883605,-0.08659667521715164,0.04072612524032593,2367460.971532417,139.5551452636719,104.8822326660156,-489.1259765625,0
2023-02-26T16:57:51.845Z,86,2367461.015759417,0.0647125244140625,-0.4421234130859375,-0.886474609375,2367461.005749417,0.02514343708753586,-0.08230073004961014,0.005680256057530642,2367460.991155417,139.5374603271484,105.0255279541016,-488.941162109375,0
2023-02-26T16:57:51.861Z,87,2367461.035779417,0.05108642578125,-0.445526123046875,-0.8928680419921875,2367461.025769417,0.00447064870968461,-0.07290243357419968,-0.01271712686866522,2367461.010778417,139.6950531005859,104.6920928955078,-488.805419921875,0
2023-02-26T16:57:51.886Z,88,2367461.055798417,0.04412841796875,-0.4375152587890625,-0.8814849853515625,2367461.045789417,-0.02559111453592777,-0.07634697109460831,-0.01774970255792141,2367461.030401417,139.6041870117188,104.690185546875,-488.7232055664062,0
2023-02-26T16:57:51.901Z,89,2367461.075787417,0.04400634765625,-0.43377685546875,-0.8717193603515625,2367461.065778417,-0.04589531943202019,-0.0477488785982132,-0.03816789016127586,2367461.050023417,139.4659423828125,104.5332946777344,-488.8133544921875,0
2023-02-26T16:57:51.931Z,90,2367461.095807417,0.051605224609375,-0.4396209716796875,-0.8856201171875,2367461.085797417,-0.04327104240655899,-0.07953450828790665,-0.0436478778719902,2367461.069646417,139.3393249511719,104.8011169433594,-488.3858642578125,0
2023-02-26T16:57:51.941Z,91,2367461.115826417,0.0499114990234375,-0.4382476806640625,-0.891571044921875,2367461.105817417,-0.01837661117315292,-0.1470472365617752,-0.03451137244701385,2367461.089269417,139.3260955810547,104.5613098144531,-488.1328125,0
2023-02-26T16:57:51.967Z,92,2367461.135815417,0.04327392578125,-0.4364013671875,-0.8852691650390625,2367461.125806417,0.02563026174902916,-0.1606812924146652,-0.01661359705030918,2367461.108861417,139.2986297607422,104.5262756347656,-487.7876892089844,0
2023-02-26T16:57:51.981Z,93,2367461.155835417,0.03692626953125,-0.4343719482421875,-0.876739501953125,2367461.145825417,0.05659164115786552,-0.1320893317461014,-0.02643560245633125,2367461.128515417,139.1489105224609,104.42822265625,-487.7230224609375,0
2023-02-26T16:57:52.010Z,94,2367461.175854417,0.0313720703125,-0.4329376220703125,-0.8863983154296875,2367461.165845417,0.07943730056285858,-0.1329519301652908,-0.03970400243997574,2367461.148137417,139.2527313232422,104.2854156494141,-487.3818969726562,0
2023-02-26T16:57:52.021Z,95,2367461.195843417,0.0341644287109375,-0.444488525390625,-0.893646240234375,2367461.185864417,0.05862043797969818,-0.1689219027757645,-0.03132037073373795,2367461.167760417,139.0783996582031,103.9961700439453,-487.2398681640625,0
2023-02-26T16:57:52.044Z,96,2367461.215863417,0.0320892333984375,-0.4505767822265625,-0.904571533203125,2367461.205853417,-0.02361531369388103,-0.2299969792366028,-0.03672605752944946,2367461.187353417,139.3845825195312,104.0873718261719,-487.1151123046875,0
2023-02-26T16:57:52.061Z,97,2367461.235883417,0.0060577392578125,-0.467010498046875,-0.9078826904296875,2367461.225873417,-0.1290975362062454,-0.3153089582920074,0.0004561994865071028,2367461.226598417,138.9747772216797,103.3868103027344,-486.7283630371094,0
2023-02-26T16:57:52.087Z,98,2367461.255872417,0.05706787109375,-0.437408447265625,-0.8792572021484375,2367461.245892417,-0.1771888881921768,-0.3570710420608521,-0.06438538432121277,2367461.246221417,139.2980041503906,103.6396484375,-486.3153076171875,0
2023-02-26T16:57:52.101Z,99,2367461.275891417,0.0272216796875,-0.4473876953125,-0.8590087890625,2367461.265881417,-0.1161513701081276,-0.2291090786457062,-0.04906714335083961,2367461.265844417,138.8749084472656,103.7630310058594,-486.4859924316406,0
2023-02-26T16:57:52.126Z,100,2367461.295911417,0.0346221923828125,-0.4430999755859375,-0.870391845703125,2367461.285901417,0.003806722350418568,-0.1643774956464767,-0.06275312602519989,2367461.285467417,138.8928375244141,103.8410034179688,-486.4625244140625,0
2023-02-26T16:57:52.141Z,101,2367461.315900417,0.0284271240234375,-0.457763671875,-0.8840179443359375,2367461.305920417,0.04225131496787071,-0.1212009936571121,-0.03858361020684242,2367461.305059417,138.3934631347656,103.7488250732422,-486.4239196777344,0
2023-02-26T16:57:52.164Z,102,2367461.335919417,0.026123046875,-0.4493865966796875,-0.8941802978515625,2367461.325909417,-0.03286100924015045,-0.1346044093370438,-0.02898584492504597,2367461.324682417,138.4419097900391,103.4090728759766,-486.6532897949219,0
2023-02-26T16:57:52.181Z,103,2367461.355939417,0.0371551513671875,-0.4265289306640625,-0.8973541259765625,2367461.345929417,-0.1589779257774353,-0.2900275588035583,-0.0276516005396843,2367461.344274417,138.2739105224609,103.3999328613281,-486.7164306640625,0
2023-02-26T16:57:52.207Z,104,2367461.375958417,-0.009674072265625,-0.437225341796875,-0.84375,2367461.365948417,-0.1936568170785904,-0.1301015466451645,-0.0615730844438076,2367461.363897417,138.0940551757812,103.4748992919922,-486.8351440429688,0
2023-02-26T16:57:52.221Z,105,2367461.395947417,0.0122833251953125,-0.419952392578125,-0.848480224609375,2367461.385937417,-0.1196808591485023,0.004401139914989471,-0.05911844596266747,2367461.383520417,137.9037933349609,103.5364379882812,-486.7108154296875,0
2023-02-26T16:57:52.249Z,106,2367461.415967417,0.0197906494140625,-0.4387054443359375,-0.8809051513671875,2367461.405957417,-0.01840910129249096,-0.04783410206437111,-0.04008137434720993,2367461.403142417,137.7980499267578,103.7024993896484,-486.9371032714844,0
2023-02-26T16:57:52.261Z,107,2367461.435986417,0.0204315185546875,-0.457061767578125,-0.8938446044921875,2367461.425977417,0.05377374961972237,-0.09275310486555099,0.02933445200324059,2367461.422735417,137.8190765380859,103.8065032958984,-486.736083984375,0
2023-02-26T16:57:52.293Z,108,2367461.455975417,0.01385498046875,-0.439697265625,-0.890533447265625,2367461.445966417,0.06022845208644867,-0.05932990089058876,0.0445735938847065,2367461.442357417,137.7004547119141,103.7212982177734,-486.8800048828125,0
2023-02-26T16:57:52.301Z,109,2367461.475995417,0.0032196044921875,-0.4043121337890625,-0.9279327392578125,2367461.465985417,0.004143346101045609,-0.1291718333959579,-0.02530029602348804,2367461.461950417,137.6576843261719,103.6694183349609,-486.9014892578125,0
2023-02-26T16:57:52.328Z,110,2367461.496014417,0.00396728515625,-0.4175262451171875,-0.92083740234375,2367461.486005417,-0.06398297846317291,-0.2489592283964157,-0.0823606550693512,2367461.481572417,137.6541900634766,103.3009643554688,-486.81494140625,0
2023-02-26T16:57:52.341Z,111,2367461.516003417,-0.0209808349609375,-0.4477996826171875,-0.8961944580078125,2367461.506024417,-0.0203313697129488,-0.1516779363155365,-0.06378190964460373,2367461.501195417,137.7649993896484,102.9661102294922,-486.79736328125,0
2023-02-26T16:57:52.374Z,112,2367461.536023417,0.000274658203125,-0.454681396484375,-0.8886260986328125,2367461.526013417,0.08432260155677795,-0.1189181283116341,-0.002526008291170001,2367461.520788417,137.8057861328125,102.9918060302734,-486.4365844726562,0
2023-02-26T16:57:52.381Z,113,2367461.556042417,0.0012054443359375,-0.4601287841796875,-0.879730224609375,2367461.546033417,0.172201856970787,-0.02914243936538696,0.05293538793921471,2367461.540410417,137.6831665039062,102.7193298339844,-486.1400756835938,0
2023-02-26T16:57:52.406Z,114,2367461.576031417,-0.009063720703125,-0.4377899169921875,-0.893280029296875,2367461.566052417,0.1627910435199738,0.002027464564889669,0.04902932792901993,2367461.560033417,137.5842742919922,102.3523406982422,-486.206298828125,0
2023-02-26T16:57:52.421Z,115,2367461.596051417,-0.014617919921875,-0.4127197265625,-0.9040374755859375,2367461.586041417,0.09843655675649643,-0.03145033493638039,-0.03415930271148682,2367461.579625417,137.7437438964844,102.3503723144531,-485.821044921875,0
2023-02-26T16:57:52.448Z,116,2367461.616071417,-0.0112762451171875,-0.444091796875,-0.89385986328125,2367461.606061417,0.05353193357586861,-0.06160584092140198,-0.08082427829504013,2367461.599248417,138.1301879882812,102.4028778076172,-485.8120727539062,0
2023-02-26T16:57:52.461Z,117,2367461.636090417,-0.0021514892578125,-0.4609832763671875,-0.8868408203125,2367461.626080417,0.03331321477890015,-0.1409675031900406,-0.04954837635159492,2367461.618871417,137.9896087646484,102.4636383056641,-485.5918579101562,0
2023-02-26T16:57:52.486Z,118,2367461.656079417,-0.006072998046875,-0.463775634765625,-0.855743408203125,2367461.646069417,0.05154787749052048,-0.1775369644165039,0.008260060101747513,2367461.638463417,137.7881469726562,102.85986328125,-485.5664367675781,0
2023-02-26T16:57:52.501Z,119,2367461.676099417,-0.012664794921875,-0.460296630859375,-0.83001708984375,2367461.666089417,0.05318545550107956,-0.02320998162031174,0.02904683165252209,2367461.658086417,138.0081481933594,102.7351989746094,-485.36279296875,0
2023-02-26T16:57:52.524Z,120,2367461.696118417,-0.006378173828125,-0.4620513916015625,-0.870849609375,2367461.686108417,0.04098951071500778,0.06568047404289246,0.02389814145863056,2367461.677678417,138.1191558837891,102.7965698242188,-485.0210571289062,0
2023-02-26T16:57:52.541Z,121,2367461.716112042,-0.000213623046875,-0.455078125,-0.8912811279296875,2367461.706102042,0.06127320975065231,0.04089949652552605,0.032768864184618,2367461.697306042,138.3133087158203,102.7386322021484,-484.8063049316406,0
2023-02-26T16:57:52.567Z,122,2367461.736132042,-0.0024566650390625,-0.4542694091796875,-0.9052886962890625,2367461.726122042,0.0900779590010643,-0.0201867613941431,0.01221884973347187,2367461.716899042,138.2072448730469,102.7504730224609,-484.70947265625,0
2023-02-26T16:57:52.581Z,123,2367461.756151042,-0.0086669921875,-0.4603271484375,-0.8919677734375,2367461.746141042,0.0899842157959938,-0.02117506042122841,0.0154956029728055,2367461.736521042,138.4282073974609,102.76953125,-484.7034912109375,0
2023-02-26T16:57:52.608Z,124,2367461.776140042,-0.027923583984375,-0.4730682373046875,-0.85858154296875,2367461.766130042,0.08673569560050964,0.008791893720626831,0.01525538600981236,2367461.756144042,138.5271453857422,102.7164916992188,-484.7197265625,0
2023-02-26T16:57:52.621Z,125,2367461.796160042,-0.0178375244140625,-0.465911865234375,-0.8293304443359375,2367461.786150042,0.1265073418617249,0.001664742012508214,0.04507133737206459,2367461.775736042,138.4436798095703,102.7067718505859,-484.8735961914062,0
2023-02-26T16:57:52.642Z,126,2367461.816179042,-0.0402679443359375,-0.474395751953125,-0.859588623046875,2367461.806170042,0.2281665951013565,0.1896703243255615,0.069515161216259,2367461.795359042,138.3866271972656,102.4405822753906,-484.8216552734375,0
2023-02-26T16:57:52.661Z,127,2367461.836168042,-0.05792236328125,-0.4919281005859375,-0.875946044921875,2367461.826189042,0.2942995429039001,0.3286924064159393,0.1119875237345695,2367461.814982042,138.6400756835938,102.4988098144531,-484.7328186035156,0
2023-02-26T16:57:52.688Z,128,2367461.856188042,-0.0642852783203125,-0.48284912109375,-0.8806610107421875,2367461.846178042,0.3340136706829071,0.4961951076984406,0.1151891723275185,2367461.834574042,139.1606597900391,102.0017700195312,-484.7254638671875,0
2023-02-26T16:57:52.701Z,129,2367461.876207042,-0.0385589599609375,-0.5112762451171875,-0.8547210693359375,2367461.866198042,0.3363599181175232,0.5941384434700012,0.1153194010257721,2367461.854197042,139.2848510742188,101.7507781982422,-484.8059997558594,0
2023-02-26T16:57:52.727Z,130,2367461.896196042,-0.0832061767578125,-0.558197021484375,-0.795257568359375,2367461.886217042,0.4429388046264648,0.804265558719635,0.2157522588968277,2367461.873789042,139.8209381103516,101.5112457275391,-484.9927978515625,0
2023-02-26T16:57:52.741Z,131,2367461.916216042,-0.0826873779296875,-0.5107269287109375,-0.7520751953125,2367461.906206042,0.6301752924919128,1.378329157829285,0.2901418209075928,2367461.893382042,140.6429748535156,101.0635986328125,-484.8752136230469,0
2023-02-26T16:57:52.768Z,132,2367461.936235042,-0.091705322265625,-0.4933319091796875,-0.814056396484375,2367461.926226042,0.7585665583610535,2.171171426773071,0.2005046010017395,2367461.913004042,141.8216094970703,100.6460723876953,-485.1601257324219,0
2023-02-26T16:57:52.781Z,133,2367461.956255042,-0.0360870361328125,-0.5532989501953125,-0.8869171142578125,2367461.946245042,0.7752973437309265,2.739532709121704,0.09614970535039902,2367461.932627042,143.601318359375,99.99098205566406,-485.0166320800781,0
2023-02-26T16:57:52.808Z,134,2367461.976244042,0.03564453125,-0.5650787353515625,-0.87677001953125,2367461.966234042,0.9091720581054688,2.967610597610474,0.09697394818067551,2367461.952220042,145.7862396240234,99.17416381835938,-485.1732788085938,0
2023-02-26T16:57:52.822Z,135,2367461.996264042,0.1079559326171875,-0.564239501953125,-0.895233154296875,2367461.986254042,1.222383499145508,3.607360601425171,-0.09512890875339508,2367461.971842042,148.0897674560547,98.26666259765625,-484.7808532714844,0
2023-02-26T16:57:52.848Z,136,2367462.016283042,0.34454345703125,-0.5750579833984375,-0.9328765869140625,2367462.006273042,1.232638716697693,4.357733726501465,-0.2549846172332764,2367461.991465042,150.4678039550781,96.86373901367188,-484.5846557617188,0
2023-02-26T16:57:52.861Z,137,2367462.036272042,0.39801025390625,-0.645294189453125,-0.848663330078125,2367462.026262042,1.107289671897888,5.081082344055176,-0.1013681665062904,2367462.011057042,153.7790374755859,95.88961791992188,-484.2485961914062,0
2023-02-26T16:57:52.887Z,138,2367462.056292042,0.477447509765625,-0.616302490234375,-0.8637542724609375,2367462.046282042,1.111091017723083,5.229653835296631,-0.01763492077589035,2367462.030680042,157.4851226806641,94.54519653320312,-483.6068115234375,0
2023-02-26T16:57:52.901Z,139,2367462.076311042,0.58740234375,-0.6128082275390625,-0.6907196044921875,2367462.066301042,1.560038685798645,4.221560001373291,0.2630611956119537,2367462.050303042,161.5369873046875,93.81196594238281,-482.1579895019531,0
2023-02-26T16:57:52.934Z,140,2367462.096300042,0.7071380615234375,-0.7569580078125,-0.7831573486328125,2367462.086321042,2.554409265518188,3.49643087387085,0.5749722123146057,2367462.069895042,164.7573852539062,92.5318603515625,-480.6432189941406,0
2023-02-26T16:57:52.941Z,141,2367462.116320042,0.6132965087890625,-0.837188720703125,-0.7339324951171875,2367462.106310042,2.471434354782104,3.429006099700928,1.133054375648499,2367462.089488042,167.5099334716797,90.68624877929688,-478.0006103515625,0
2023-02-26T16:57:52.968Z,142,2367462.136339042,0.6956634521484375,-0.9060516357421875,-0.5075225830078125,2367462.126329042,2.188762903213501,3.095558881759644,1.151401996612549,2367462.109110042,169.6790161132812,88.58082580566406,-475.1296997070312,0
2023-02-26T16:57:52.981Z,143,2367462.156328042,0.6378326416015625,-0.89605712890625,-0.2745208740234375,2367462.146349042,2.220540046691895,2.24999213218689,0.6176469922065735,2367462.128703042,171.4579925537109,86.35664367675781,-473.1755981445312,0
2023-02-26T16:57:53.007Z,144,2367462.176348042,0.77313232421875,-1.008407592773438,-0.3405914306640625,2367462.166338042,1.00685727596283,1.632230162620544,0.7002606391906738,2367462.148295042,172.9874267578125,84.12971496582031,-471.1597290039062,0
2023-02-26T16:57:53.021Z,145,2367462.196367042,0.7238616943359375,-1.067855834960938,-0.4261322021484375,2367462.186358042,-0.466424971818924,0.203791469335556,1.3368821144104,2367462.167918042,174.0011138916016,82.46736145019531,-469.3631591796875,0
2023-02-26T16:57:53.054Z,146,2367462.216356042,0.614593505859375,-1.050750732421875,-0.640960693359375,2367462.206377042,-1.09394371509552,-2.485872268676758,2.071610450744629,2367462.207102042,174.2991943359375,81.55355834960938,-469.215576171875,0
2023-02-26T16:57:53.061Z,147,2367462.236376042,0.275421142578125,-1.059890747070312,-0.9014739990234375,2367462.226366042,-1.237557411193848,-4.957096099853516,2.301385641098022,2367462.226725042,172.5575714111328,82.64433288574219,-471.15625,0
2023-02-26T16:57:53.088Z,148,2367462.256395042,0.476806640625,-1.055923461914062,-0.700775146484375,2367462.246386042,-0.6616597175598145,-2.592196464538574,2.889780521392822,2367462.246317042,170.2766571044922,81.74908447265625,-472.9469299316406,0
2023-02-26T16:57:53.101Z,149,2367462.276415042,0.464691162109375,-1.158233642578125,-0.70904541015625,2367462.266405042,1.785172820091248,-3.39004111289978,3.537855863571167,2367462.265940042,167.2857818603516,80.41915893554688,-473.887939453125,0
2023-02-26T16:57:53.134Z,150,2367462.296404042,0.4851226806640625,-1.105972290039062,-0.838165283203125,2367462.286394042,2.948481321334839,-3.195679903030396,3.693102359771729,2367462.285533042,163.4905853271484,77.55154418945312,-474.1969299316406,0
2023-02-26T16:57:53.141Z,151,2367462.316423042,0.397857666015625,-1.092971801757812,-0.78118896484375,2367462.306414042,2.669608592987061,-2.752582788467407,3.652090072631836,2367462.305125042,159.5916748046875,74.80331420898438,-473.7297973632812,0
2023-02-26T16:57:53.164Z,152,2367462.336443042,0.261260986328125,-0.9725341796875,-0.6977386474609375,2367462.326433042,2.459426164627075,-3.059911251068115,3.350262641906738,2367462.324748042,155.6615600585938,72.56175231933594,-473.6033935546875,0
2023-02-26T16:57:53.181Z,153,2367462.356432042,0.188812255859375,-0.9603118896484375,-0.5147705078125,2367462.346422042,2.620886087417603,-3.722021579742432,3.045791864395142,2367462.344340042,151.7539672851562,70.51081848144531,-472.7556762695312,0
2023-02-26T16:57:53.207Z,154,2367462.376452042,0.2309722900390625,-0.90435791015625,-0.4146575927734375,2367462.366442042,2.691228151321411,-3.947860479354858,2.783610343933105,2367462.363963042,147.5663604736328,68.65724182128906,-471.5696105957031,0
2023-02-26T16:57:53.222Z,155,2367462.396471042,0.18157958984375,-0.85040283203125,-0.246978759765625,2367462.386461042,2.51898980140686,-3.933342933654785,2.458415269851685,2367462.383555042,143.7680358886719,67.13835144042969,-469.8941040039062,0
2023-02-26T16:57:53.246Z,156,2367462.416460042,0.0830078125,-0.6635589599609375,-0.205535888671875,2367462.406481042,2.312459230422974,-3.200725555419922,2.745725393295288,2367462.403178042,139.9550018310547,65.77490234375,-468.3878784179688,0
2023-02-26T16:57:53.261Z,157,2367462.436480042,-0.0098876953125,-0.6837921142578125,0.0345001220703125,2367462.426470042,2.455622434616089,-3.083247900009155,3.175307273864746,2367462.422770042,136.3960571289062,64.86286926269531,-466.7362670898438,0
2023-02-26T16:57:53.287Z,158,2367462.456499042,-0.041015625,-0.7011566162109375,0.130523681640625,2367462.446489042,2.448116779327393,-3.415836811065674,3.310840845108032,2367462.442393042,132.7984161376953,63.95001220703125,-464.52978515625,0
2023-02-26T16:57:53.301Z,159,2367462.476488042,-0.0821533203125,-0.72332763671875,0.1650848388671875,2367462.466509042,2.172782897949219,-3.8175950050354,3.090791702270508,2367462.461985042,128.8496856689453,63.58909606933594,-462.4107666015625,0
2023-02-26T16:57:53.328Z,160,2367462.496508042,-0.066864013671875,-0.745513916015625,0.1898193359375,2367462.486498042,2.003570556640625,-4.081331253051758,2.786069631576538,2367462.481577042,125.6186370849609,63.57850646972656,-459.9522705078125,0
2023-02-26T16:57:53.343Z,161,2367462.516527042,-0.0787200927734375,-0.6362457275390625,0.238433837890625,2367462.506517042,1.940324783325195,-3.472739934921265,2.664976358413696,2367462.501170042,122.0073089599609,63.63447570800781,-457.281982421875,0
2023-02-26T16:57:53.375Z,162,2367462.536547042,-0.0870513916015625,-0.6298828125,0.321044921875,2367462.526537042,1.870564937591553,-2.516478776931763,2.601658582687378,2367462.520762042,119.2283172607422,63.94676208496094,-455.1138916015625,0
2023-02-26T16:57:53.381Z,163,2367462.556536042,-0.128173828125,-0.5628814697265625,0.3420867919921875,2367462.546526042,1.870150208473206,-2.066672086715698,2.219422817230225,2367462.540385042,116.802490234375,63.79948425292969,-453.3537292480469,0
2023-02-26T16:57:53.407Z,164,2367462.576555042,-0.257293701171875,-0.5951385498046875,0.302215576171875,2367462.566545042,1.773017883300781,-1.89164412021637,2.103966236114502,2367462.559977042,114.5751342773438,64.02880859375,-451.8909912109375,0
2023-02-26T16:57:53.422Z,165,2367462.596575042,-0.27777099609375,-0.6060791015625,0.3138580322265625,2367462.586565042,1.728141188621521,-2.04559850692749,2.13516092300415,2367462.579569042,112.4693450927734,63.96647644042969,-450.0327758789062,0
2023-02-26T16:57:53.445Z,166,2367462.616564042,-0.2623748779296875,-0.543975830078125,0.382476806640625,2367462.606554042,1.718272805213928,-1.981927394866943,1.984087467193604,2367462.599162042,109.9939270019531,63.97677612304688,-448.46630859375,0
2023-02-26T16:57:53.462Z,167,2367462.636583042,-0.2543792724609375,-0.506011962890625,0.46514892578125,2367462.626574042,1.634965181350708,-1.627421498298645,1.77576220035553,2367462.618785042,107.5123443603516,63.22225952148438,-447.1085815429688,0
2023-02-26T16:57:53.485Z,168,2367462.656603042,-0.26885986328125,-0.4621429443359375,0.5324554443359375,2367462.646593042,1.480401992797852,-1.194638609886169,1.515572190284729,2367462.638377042,104.7625122070312,61.90815734863281,-445.3948059082031,0
2023-02-26T16:57:53.502Z,169,2367462.676592042,-0.3396453857421875,-0.4219512939453125,0.5892791748046875,2367462.666582042,1.392132878303528,-0.8420023322105408,1.362527012825012,2367462.658000042,101.7576599121094,60.1907958984375,-444.0441589355469,0
2023-02-26T16:57:53.524Z,170,2367462.696611042,-0.3798980712890625,-0.3945465087890625,0.5928955078125,2367462.686602042,1.272337198257446,-0.7259766459465027,1.317891597747803,2367462.677592042,98.08758544921875,57.97311401367188,-442.1051025390625,0
2023-02-26T16:57:53.542Z,171,2367462.716614667,-0.390777587890625,-0.3634490966796875,0.66009521484375,2367462.706604667,1.274904489517212,-0.6002983450889587,1.194824576377869,2367462.697198667,93.94293212890625,55.83895874023438,-438.7298278808594,0
2023-02-26T16:57:53.567Z,172,2367462.736603667,-0.4244537353515625,-0.269622802734375,0.690948486328125,2367462.726624667,1.392192006111145,-0.5360956788063049,0.8875522017478943,2367462.716790667,89.55644226074219,54.15097045898438,-434.4109191894531,0
2023-02-26T16:57:53.582Z,173,2367462.756622667,-0.4983062744140625,-0.2286376953125,0.7559814453125,2367462.746613667,1.294718623161316,-0.5584803223609924,0.6103547215461731,2367462.736413667,85.54360961914062,53.58993530273438,-428.2828674316406,0
2023-02-26T16:57:53.607Z,174,2367462.776642667,-0.547393798828125,-0.1981353759765625,0.8596038818359375,2367462.766632667,1.038723349571228,-0.4093331694602966,0.3829761445522308,2367462.756005667,82.70956420898438,54.84521484375,-422.238525390625,0
2023-02-26T16:57:53.622Z,175,2367462.796631667,-0.6080322265625,-0.171539306640625,0.9415740966796875,2367462.786652667,0.9165183305740356,-0.2814439237117767,0.1710140854120255,2367462.775628667,80.93574523925781,57.18582153320312,-416.6135559082031,0
2023-02-26T16:57:53.645Z,176,2367462.816651667,-0.6299285888671875,-0.1512298583984375,0.961883544921875,2367462.806641667,0.9205051064491272,-0.05321661755442619,-0.04521328583359718,2367462.795220667,80.92123413085938,59.95794677734375,-412.3178100585938,0
2023-02-26T16:57:53.662Z,177,2367462.836670667,-0.6461639404296875,-0.1463165283203125,0.9450836181640625,2367462.826660667,0.8483185172080994,-0.02406885102391243,-0.2522689998149872,2367462.814843667,81.10888671875,62.548095703125,-408.86767578125,0
2023-02-26T16:57:53.688Z,178,2367462.856690667,-0.6386871337890625,-0.167236328125,0.9209747314453125,2367462.846680667,0.5391353964805603,-0.1432639509439468,-0.3123496472835541,2367462.834435667,82.29287719726562,64.31217956542969,-406.1663818359375,0
2023-02-26T16:57:53.702Z,179,2367462.876679667,-0.604400634765625,-0.1805267333984375,0.89422607421875,2367462.866669667,0.2163717150688171,-0.202765092253685,-0.2815938591957092,2367462.854028667,83.30491638183594,65.33702087402344,-404.1640625,0
2023-02-26T16:57:53.727Z,180,2367462.896698667,-0.572418212890625,-0.2347869873046875,0.8667144775390625,2367462.886688667,0.1457723826169968,-0.2047819048166275,-0.2456063032150269,2367462.873650667,84.58457946777344,65.26109313964844,-402.1033935546875,0
2023-02-26T16:57:53.742Z,181,2367462.916718667,-0.5026702880859375,-0.2793426513671875,0.8244476318359375,2367462.906708667,0.280523806810379,-0.08744782209396362,-0.2340495139360428,2367462.893243667,85.54791259765625,64.95140075683594,-401.0597534179688,0
2023-02-26T16:57:53.767Z,182,2367462.936707667,-0.4882354736328125,-0.3271331787109375,0.78997802734375,2367462.926697667,0.3126055896282196,-0.1117608845233917,-0.160079151391983,2367462.912865667,87.23542785644531,65.25083923339844,-400.1402587890625,0
2023-02-26T16:57:53.782Z,183,2367462.956726667,-0.482940673828125,-0.365081787109375,0.7741241455078125,2367462.946716667,0.1687594503164291,-0.326215386390686,0.1008304730057716,2367462.932458667,88.30166625976562,65.66767883300781,-399.5127563476562,0
2023-02-26T16:57:53.809Z,184,2367462.976746667,-0.47723388671875,-0.3642425537109375,0.7975616455078125,2367462.966736667,0.00503976596519351,-0.5291333794593811,0.3295765817165375,2367462.952080667,89.17269897460938,66.34150695800781,-398.8275756835938,0
2023-02-26T16:57:53.822Z,185,2367462.996735667,-0.4600982666015625,-0.349853515625,0.823883056640625,2367462.986756667,-0.04761705175042152,-0.5201965570449829,0.3833010494709015,2367462.971673667,89.94033813476562,67.06594848632812,-398.1784973144531,0
2023-02-26T16:57:53.843Z,186,2367463.016754667,-0.4566497802734375,-0.330474853515625,0.8295135498046875,2367463.006745667,-0.03689143806695938,-0.3082135021686554,0.2400725185871124,2367462.991296667,89.76255798339844,67.94523620605469,-397.509033203125,0
2023-02-26T16:57:53.862Z,187,2367463.036774667,-0.4792938232421875,-0.319732666015625,0.8013153076171875,2367463.026764667,0.07644736766815186,-0.07300949841737747,0.07864714413881302,2367463.010888667,90.12664794921875,68.0975341796875,-396.8945007324219,0
2023-02-26T16:57:53.885Z,188,2367463.056763667,-0.5168914794921875,-0.3070831298828125,0.7890625,2367463.046784667,0.2696866095066071,0.01594887301325798,-0.01742080226540565,2367463.030511667,89.87532043457031,68.95063781738281,-396.6767578125,0
2023-02-26T16:57:53.902Z,189,2367463.076782667,-0.534271240234375,-0.29815673828125,0.7948455810546875,2367463.066773667,0.3284929394721985,-0.1264077425003052,-0.05221260339021683,2367463.050103667,90.02830505371094,69.85223388671875,-396.4103393554688,0
2023-02-26T16:57:53.924Z,190,2367463.096802667,-0.52325439453125,-0.290557861328125,0.808746337890625,2367463.086792667,0.2592105269432068,-0.2186122387647629,-0.041962631046772,2367463.069726667,89.98431396484375,70.73919677734375,-396.1935729980469,0
2023-02-26T16:57:53.942Z,191,2367463.116791667,-0.5199737548828125,-0.2893829345703125,0.8310699462890625,2367463.106812667,0.238797664642334,-0.2010098099708557,-0.07549795508384705,2367463.089318667,90.39833068847656,71.33845520019531,-395.7737121582031,0
2023-02-26T16:57:53.966Z,192,2367463.136810667,-0.5225372314453125,-0.2929840087890625,0.8270721435546875,2367463.126801667,0.2690106928348541,-0.1180800348520279,-0.1205559745430946,2367463.108910667,90.47578430175781,71.95968627929688,-395.9647521972656,0
2023-02-26T16:57:53.982Z,193,2367463.156830667,-0.532989501953125,-0.3073883056640625,0.7992401123046875,2367463.146820667,0.2408850491046906,-0.04805780574679375,-0.1297143250703812,2367463.128503667,90.62533569335938,72.09577941894531,-395.6707153320312,0
2023-02-26T16:57:54.010Z,194,2367463.176850667,-0.556182861328125,-0.303802490234375,0.7967681884765625,2367463.166840667,0.2223382592201233,-0.1150301843881607,-0.1135790273547173,2367463.167718667,90.44676208496094,72.90975952148438,-395.8624267578125,0
2023-02-26T16:57:54.022Z,195,2367463.196839667,-0.5605621337890625,-0.2978515625,0.80401611328125,2367463.186829667,0.2367997616529465,-0.2143929898738861,-0.07488755881786346,2367463.187310667,90.601806640625,73.53486633300781,-395.5597534179688,0
2023-02-26T16:57:54.044Z,196,2367463.216858667,-0.5461273193359375,-0.2975616455078125,0.8049468994140625,2367463.206848667,0.1729147881269455,-0.2495914548635483,-0.1030092090368271,2367463.206933667,91.08131408691406,73.50630187988281,-395.1761474609375,0
2023-02-26T16:57:54.062Z,197,2367463.236878667,-0.5278167724609375,-0.29205322265625,0.8141632080078125,2367463.226868667,0.1028334349393845,-0.1555837392807007,-0.1684143096208572,2367463.226525667,90.97271728515625,73.48475646972656,-394.7694091796875,0
2023-02-26T16:57:54.086Z,198,2367463.256867667,-0.5235443115234375,-0.2958831787109375,0.816497802734375,2367463.246857667,0.1045612990856171,-0.04371099546551704,-0.2332748025655746,2367463.246148667,91.45503234863281,73.3040771484375,-394.4168701171875,0
2023-02-26T16:57:54.102Z,199,2367463.276886667,-0.528533935546875,-0.2895965576171875,0.795074462890625,2367463.266876667,0.134508803486824,-0.04687057062983513,-0.2219571620225906,2367463.265740667,91.45671081542969,73.42755126953125,-394.3185424804688,0
2023-02-26T16:57:54.125Z,200,2367463.296906667,-0.5319976806640625,-0.2866668701171875,0.803558349609375,2367463.286896667,0.1366380006074905,-0.1662696748971939,-0.1440860629081726,2367463.285363667,91.69737243652344,73.4588623046875,-393.9795532226562,0
2023-02-26T16:57:54.142Z,201,2367463.316895667,-0.514801025390625,-0.2760772705078125,0.8220977783203125,2367463.306915667,0.1450895518064499,-0.2088951617479324,-0.07706069946289062,2367463.304955667,92.29386901855469,73.69302368164062,-393.959716796875,0
2023-02-26T16:57:54.166Z,202,2367463.336914667,-0.4957427978515625,-0.271331787109375,0.8375091552734375,2367463.326904667,0.1262111961841583,-0.1219112575054169,-0.07858934998512268,2367463.324578667,92.53305053710938,73.81361389160156,-393.6193237304688,0
2023-02-26T16:57:54.182Z,203,2367463.356934667,-0.478759765625,-0.27130126953125,0.8420867919921875,2367463.346924667,0.05473382025957108,0.0213276594877243,-0.1431989669799805,2367463.344170667,93.17344665527344,74.07464599609375,-393.9447937011719,0
2023-02-26T16:57:54.209Z,204,2367463.376923667,-0.485931396484375,-0.2807159423828125,0.840362548828125,2367463.366944667,-0.01167103741317987,0.1087666973471642,-0.1728402227163315,2367463.363793667,93.27011108398438,74.08610534667969,-393.977783203125,0
2023-02-26T16:57:54.222Z,205,2367463.396942667,-0.4966583251953125,-0.2802276611328125,0.832122802734375,2367463.386933667,-0.0223857332020998,0.02174364402890205,-0.1201810017228127,2367463.383385667,93.29165649414062,73.97032165527344,-394.1436767578125,0
2023-02-26T16:57:54.251Z,206,2367463.416962667,-0.4901580810546875,-0.28057861328125,0.84002685546875,2367463.406952667,-0.00595456175506115,-0.08687311410903931,-0.020689832046628,2367463.403008667,93.24766540527344,74.02238464355469,-394.022216796875,0
2023-02-26T16:57:54.262Z,207,2367463.436981667,-0.4780731201171875,-0.278594970703125,0.8339996337890625,2367463.426972667,-0.04408490285277367,-0.08022107183933258,0.05086690932512283,2367463.422601667,92.99998474121094,74.13179016113281,-393.86962890625,0
2023-02-26T16:57:54.285Z,208,2367463.456970667,-0.482391357421875,-0.2852935791015625,0.830108642578125,2367463.446961667,-0.1411661803722382,-0.02442970871925354,0.1037900447845459,2367463.442223667,92.90771484375,73.8604736328125,-394.1486206054688,0
2023-02-26T16:57:54.302Z,209,2367463.476990667,-0.495086669921875,-0.28125,0.827484130859375,2367463.466980667,-0.2176436483860016,0.01197437103837729,0.1093501895666122,2367463.461816667,92.38069152832031,73.87617492675781,-394.19873046875,0
2023-02-26T16:57:54.326Z,210,2367463.497009667,-0.51177978515625,-0.285247802734375,0.8224945068359375,2367463.487000667,-0.2598496973514557,-0.01093440689146519,0.08554606139659882,2367463.481408667,92.28453063964844,73.7923583984375,-394.4210815429688,0
2023-02-26T16:57:54.342Z,211,2367463.516998667,-0.5114593505859375,-0.2941131591796875,0.813812255859375,2367463.506989667,-0.2445998936891556,0.003608583239838481,0.05113455653190613,2367463.501000667,91.61265563964844,72.87831115722656,-394.387451171875,0
2023-02-26T16:57:54.372Z,212,2367463.537018667,-0.5142822265625,-0.3042144775390625,0.8106689453125,2367463.527008667,-0.1534774452447891,0.03059465996921062,-0.01019085198640823,2367463.520623667,91.45469665527344,72.54989624023438,-394.6974487304688,0
2023-02-26T16:57:54.382Z,213,2367463.557038667,-0.506866455078125,-0.316986083984375,0.8003692626953125,2367463.547028667,-0.06792791932821274,0.04971562325954437,-0.039838757365942,2367463.540246667,91.27366638183594,72.09326171875,-394.8624877929688,0
2023-02-26T16:57:54.405Z,214,2367463.577027667,-0.5000457763671875,-0.3214874267578125,0.7962188720703125,2367463.567017667,-0.04284999519586563,0.04359541460871696,-0.04033570364117622,2367463.559869667,91.18669128417969,71.84812927246094,-394.9314575195312,0
2023-02-26T16:57:54.422Z,215,2367463.597046667,-0.5010833740234375,-0.3214263916015625,0.8058319091796875,2367463.587036667,-0.02477112598717213,0.00549276964738965,-0.02514689788222313,2367463.579491667,91.60279846191406,71.88786315917969,-395.1921081542969,0
2023-02-26T16:57:54.446Z,216,2367463.617066667,-0.501861572265625,-0.316162109375,0.8151702880859375,2367463.607056667,-0.03484533354640007,-0.05315030366182327,-0.02463743649423122,2367463.599084667,91.39833068847656,72.04212951660156,-395.3963317871094,0
2023-02-26T16:57:54.462Z,217,2367463.637055667,-0.4966888427734375,-0.306121826171875,0.8267669677734375,2367463.627075667,-0.01837554574012756,-0.02340838685631752,-0.03113581426441669,2367463.618706667,91.6922607421875,71.98057556152344,-395.2983093261719,0
2023-02-26T16:57:54.486Z,218,2367463.657074667,-0.4971466064453125,-0.3013763427734375,0.83319091796875,2367463.647064667,0.02876506932079792,0.03082262724637985,-0.06412812322378159,2367463.638299667,92.13218688964844,72.21263122558594,-395.5670776367188,0
2023-02-26T16:57:54.502Z,219,2367463.677094667,-0.4935150146484375,-0.289459228515625,0.839691162109375,2367463.667084667,0.08235745877027512,0.05977891013026237,-0.1162746772170067,2367463.657922667,92.3636474609375,72.11058044433594,-395.7677612304688,0
2023-02-26T16:57:54.523Z,220,2367463.697083667,-0.4897918701171875,-0.2869720458984375,0.8428802490234375,2367463.687103667,0.09316429495811462,0.08416840434074402,-0.1468914449214935,2367463.677544667,92.70994567871094,72.42909240722656,-395.8379211425781,0
2023-02-26T16:57:54.542Z,221,2367463.717082542,-0.4869842529296875,-0.2832794189453125,0.8454437255859375,2367463.707072542,0.06641417741775513,0.05551652237772942,-0.128681018948555,2367463.697117542,92.92648315429688,72.57565307617188,-396.0128173828125,0
2023-02-26T16:57:54.563Z,222,2367463.737102542,-0.4917449951171875,-0.2815093994140625,0.8455963134765625,2367463.727092542,-0.001681519905105233,0.02180756069719791,-0.08443259447813034,2367463.716739542,92.97758483886719,72.65553283691406,-395.92236328125,0
2023-02-26T16:57:54.582Z,223,2367463.757121542,-0.491119384765625,-0.288330078125,0.8481903076171875,2367463.747112542,-0.1049154996871948,-0.03672818839550018,-0.04384548589587212,2367463.736332542,93.2950439453125,72.41011047363281,-395.9412231445312,0
2023-02-26T16:57:54.604Z,224,2367463.777110542,-0.4868621826171875,-0.296112060546875,0.8427276611328125,2367463.767101542,-0.157129168510437,-0.02388216368854046,-0.02746704407036304,2367463.755955542,93.18312072753906,71.93675231933594,-395.7913818359375,0
2023-02-26T16:57:54.622Z,225,2367463.797130542,-0.485809326171875,-0.3052978515625,0.8296661376953125,2367463.787120542,-0.1377187222242355,-0.006980943959206343,-0.04928605630993843,2367463.775547542,92.87222290039062,71.46180725097656,-395.8881225585938,0
2023-02-26T16:57:54.648Z,226,2367463.817149542,-0.4837493896484375,-0.30511474609375,0.818603515625,2367463.807140542,-0.08292710781097412,-0.001275387825444341,-0.08587682247161865,2367463.795170542,92.6783447265625,71.12086486816406,-395.7166748046875,0
2023-02-26T16:57:54.662Z,227,2367463.837138542,-0.4807586669921875,-0.3094024658203125,0.81683349609375,2367463.827129542,-0.01732839085161686,0.01602876745164394,-0.1163085028529167,2367463.814762542,92.60800170898438,70.85362243652344,-395.4376220703125,0
2023-02-26T16:57:54.685Z,228,2367463.857158542,-0.4908447265625,-0.327178955078125,0.8197174072265625,2367463.847148542,0.008660865947604179,0.02322942204773426,-0.08079285174608231,2367463.834385542,92.60789489746094,70.62371826171875,-395.2953491210938,0
2023-02-26T16:57:54.702Z,229,2367463.877177542,-0.4948883056640625,-0.32568359375,0.8126373291015625,2367463.867168542,-0.003458647290244699,-0.02860794216394424,-0.03861210867762566,2367463.854008542,92.7001953125,70.59431457519531,-395.3938293457031,0
2023-02-26T16:57:54.732Z,230,2367463.897166542,-0.4958953857421875,-0.3243255615234375,0.81842041015625,2367463.887187542,0.001868207473307848,-0.0411093533039093,-0.02957120724022388,2367463.873600542,92.58729553222656,70.72434997558594,-395.1897583007812,0
2023-02-26T16:57:54.742Z,231,2367463.917186542,-0.4959716796875,-0.3243560791015625,0.8195648193359375,2367463.907176542,0.04148006439208984,-0.004024036228656769,-0.06386313587427139,2367463.893223542,92.65684509277344,70.599609375,-395.273681640625,0
2023-02-26T16:57:54.765Z,232,2367463.937206542,-0.4966278076171875,-0.320648193359375,0.8156585693359375,2367463.927196542,0.07878615707159042,0.02101846598088741,-0.10087601095438,2367463.912815542,92.63792419433594,70.84089660644531,-395.3824462890625,0
2023-02-26T16:57:54.782Z,233,2367463.957195542,-0.4936065673828125,-0.3116912841796875,0.8206939697265625,2367463.947215542,0.09531453251838684,0.04477119818329811,-0.1289742290973663,2367463.932438542,92.599609375,70.75494384765625,-395.2581176757812,0
2023-02-26T16:57:54.808Z,234,2367463.977214542,-0.4959716796875,-0.298004150390625,0.8351593017578125,2367463.967204542,0.117539145052433,0.07551313191652298,-0.145961195230484,2367463.952030542,92.79902648925781,71.22903442382812,-395.3957824707031,0
2023-02-26T16:57:54.822Z,235,2367463.997234542,-0.5032196044921875,-0.2899932861328125,0.84197998046875,2367463.987224542,0.06115789711475372,0.06188707053661346,-0.1695365607738495,2367463.971653542,92.77615356445312,71.321044921875,-395.3185424804688,0
2023-02-26T16:57:54.844Z,236,2367464.017223542,-0.5079803466796875,-0.29827880859375,0.85479736328125,2367464.007243542,-0.03441949188709259,0.03993276879191399,-0.1683615744113922,2367463.991245542,92.97784423828125,71.39537048339844,-395.3865661621094,0
2023-02-26T16:57:54.862Z,237,2367464.037242542,-0.5018157958984375,-0.2909698486328125,0.8553314208984375,2367464.027232542,-0.03478620946407318,0.01369131077080965,-0.1128589063882828,2367464.010868542,92.88673400878906,70.67564392089844,-394.9357299804688,0
2023-02-26T16:57:54.885Z,238,2367464.057262542,-0.5035247802734375,-0.309967041015625,0.8553009033203125,2367464.047252542,-0.05276148021221161,0.006954312324523926,-0.07822743058204651,2367464.030460542,93.18742370605469,70.13400268554688,-394.5540466308594,0
2023-02-26T16:57:54.902Z,239,2367464.077281542,-0.5227508544921875,-0.31964111328125,0.8721771240234375,2367464.067271542,-0.1055722311139107,-0.001106809708289802,-0.05131698399782181,2367464.050083542,93.18150329589844,69.51597595214844,-393.9884643554688,0
2023-02-26T16:57:54.926Z,240,2367464.097270542,-0.5487518310546875,-0.3389129638671875,0.9041900634765625,2367464.087260542,-0.1286772787570953,-0.04430914297699928,-0.0469089187681675,2367464.069675542,93.19709777832031,68.5947265625,-393.44873046875,0
2023-02-26T16:57:54.943Z,241,2367464.117290542,-0.571075439453125,-0.336456298828125,0.9380950927734375,2367464.107280542,-0.07071810960769653,-0.1361706256866455,-0.1073458939790726,2367464.089268542,92.72682189941406,67.52740478515625,-392.2560424804688,0
2023-02-26T16:57:54.973Z,242,2367464.137309542,-0.5885009765625,-0.33575439453125,0.9727935791015625,2367464.127300542,-0.02728115580976009,-0.1668196171522141,-0.1501010805368423,2367464.108890542,92.48554992675781,65.74702453613281,-390.9304809570312,0
2023-02-26T16:57:54.982Z,243,2367464.157298542,-0.595977783203125,-0.3459014892578125,1.02679443359375,2367464.147289542,0.0302822720259428,-0.09974896162748337,-0.1500182598829269,2367464.148105542,92.05892944335938,59.92889404296875,-385.8742370605469,0
2023-02-26T16:57:55.005Z,244,2367464.177318542,-0.59490966796875,-0.348876953125,1.0692138671875,2367464.167308542,0.09922485053539276,0.1037900447845459,-0.2451101541519165,2367464.167698542,91.56828308105469,55.16024780273438,-381.981201171875,0
2023-02-26T16:57:55.022Z,245,2367464.197337542,-0.6077880859375,-0.3766326904296875,1.061599731445312,2367464.187328542,0.04943626001477242,0.296743243932724,-0.4023098945617676,2367464.187321542,91.57545471191406,47.76246643066406,-376.8834533691406,0
2023-02-26T16:57:55.048Z,246,2367464.217326542,-0.657562255859375,-0.3856201171875,1.100677490234375,2367464.207347542,0.0607384480535984,0.3997503221035004,-0.4972822070121765,2367464.206913542,92.13768005371094,36.42947387695312,-370.3867797851562,0
2023-02-26T16:57:55.062Z,247,2367464.237346542,-0.6995086669921875,-0.411834716796875,1.139617919921875,2367464.227336542,0.1203588992357254,0.3412763774394989,-0.5177435278892517,2367464.226536542,96.15966796875,19.41787719726562,-362.3641357421875,0
2023-02-26T16:57:55.089Z,248,2367464.257365542,-0.7129364013671875,-0.411376953125,1.14520263671875,2367464.247356542,0.1472408473491669,0.2638739943504333,-0.4433760941028595,2367464.246128542,105.3819732666016,-5.839599609375,-355.1960144042969,0
2023-02-26T16:57:55.107Z,249,2367464.277354542,-0.722503662109375,-0.41680908203125,1.15399169921875,2367464.267375542,0.2505917251110077,0.2351818829774857,-0.2212088108062744,2367464.265751542,123.5639495849609,-37.69302368164062,-354.6067810058594,0
2023-02-26T16:57:55.127Z,250,2367464.297374542,-0.7312469482421875,-0.4312744140625,1.15484619140625,2367464.287364542,0.3050405979156494,0.1765508055686951,-0.1533850282430649,2367464.285343542,152.4745330810547,-67.7535400390625,-370.4675903320312,0
2023-02-26T16:57:55.142Z,251,2367464.317394542,-0.7184906005859375,-0.418060302734375,1.171539306640625,2367464.307384542,0.3133803009986877,0.166474461555481,-0.1873922646045685,2367464.304935542,184.2965393066406,-77.61079406738281,-407.7672729492188,0
2023-02-26T16:57:55.166Z,252,2367464.337413542,-0.6700439453125,-0.42852783203125,1.168121337890625,2367464.327403542,0.2374964505434036,0.1272455751895905,-0.2570954561233521,2367464.324558542,198.5145874023438,-49.56094360351562,-452.5579833984375,0
2023-02-26T16:57:55.182Z,253,2367464.357402542,-0.562408447265625,-0.45318603515625,1.103973388671875,2367464.347392542,0.09933910518884659,0.2586304843425751,-0.3743571043014526,2367464.344181542,184.9578704833984,2.414657592773438,-478.3075866699219,0
2023-02-26T16:57:55.209Z,254,2367464.377422542,-0.510101318359375,-0.448272705078125,1.04534912109375,2367464.367412542,0.2467586547136307,0.4655794203281403,-0.4740200340747833,2367464.363773542,159.2066345214844,46.10136413574219,-476.0802001953125,0
2023-02-26T16:57:55.223Z,255,2367464.397441542,-0.5384521484375,-0.4740753173828125,1.014617919921875,2367464.387431542,0.4725838005542755,0.3507779836654663,-0.4402982890605927,2367464.383396542,138.6783294677734,68.13529968261719,-462.5419616699219,0
2023-02-26T16:57:55.246Z,256,2367464.417430542,-0.5278778076171875,-0.493621826171875,0.9952545166015625,2367464.407420542,0.3734910190105438,-0.07776909321546555,-0.2271652370691299,2367464.402988542,126.0919799804688,76.78448486328125,-450.1856689453125,0
2023-02-26T16:57:55.262Z,257,2367464.437450542,-0.4501495361328125,-0.50567626953125,0.9647216796875,2367464.427440542,0.1929449588060379,-0.2902275621891022,0.03803153708577156,2367464.422581542,119.7626495361328,79.43635559082031,-441.7745971679688,0
2023-02-26T16:57:55.286Z,258,2367464.457469542,-0.4145355224609375,-0.508544921875,0.9153900146484375,2367464.447459542,0.2181413918733597,-0.404821515083313,0.3513761460781097,2367464.442203542,116.8933410644531,79.76686096191406,-436.4416198730469,0
2023-02-26T16:57:55.302Z,259,2367464.477458542,-0.4166107177734375,-0.4747772216796875,0.8784332275390625,2367464.467479542,0.3548654019832611,-0.508082389831543,0.5556389689445496,2367464.461796542,115.1399993896484,79.86460876464844,-432.838134765625,0
2023-02-26T16:57:55.326Z,260,2367464.497478542,-0.4490966796875,-0.417877197265625,0.8520965576171875,2367464.487468542,0.35726198554039,-0.583759605884552,0.6071224212646484,2367464.481418542,114.4733734130859,79.96076965332031,-430.3309631347656,0
2023-02-26T16:57:55.342Z,261,2367464.517497542,-0.45379638671875,-0.370941162109375,0.849639892578125,2367464.507488542,0.1347522288560867,-0.7177408337593079,0.4755894243717194,2367464.501011542,114.136474609375,79.85748291015625,-428.5927734375,0
2023-02-26T16:57:55.367Z,262,2367464.537486542,-0.4055938720703125,-0.33721923828125,0.8503875732421875,2367464.527507542,-0.1059983372688293,-0.657513439655304,0.32464599609375,2367464.520603542,113.9346160888672,80.07107543945312,-427.2548522949219,0
2023-02-26T16:57:55.383Z,263,2367464.557506542,-0.3640899658203125,-0.3238372802734375,0.7779541015625,2367464.547496542,-0.2333294004201889,-0.4557832479476929,0.2533166706562042,2367464.540226542,114.3341064453125,79.98484802246094,-426.2591552734375,0
2023-02-26T16:57:55.410Z,264,2367464.577525542,-0.3603057861328125,-0.3352508544921875,0.7406768798828125,2367464.567516542,-0.1763880848884583,-0.3062949478626251,0.1652379631996155,2367464.559849542,113.9927978515625,79.73422241210938,-425.90380859375,0
2023-02-26T16:57:55.424Z,265,2367464.597514542,-0.3975372314453125,-0.321075439453125,0.7374114990234375,2367464.587535542,0.1736199855804443,-0.3233011066913605,0.06783710420131683,2367464.579441542,113.9510803222656,79.58746337890625,-425.3973388671875,0
2023-02-26T16:57:55.444Z,266,2367464.617534542,-0.407806396484375,-0.259918212890625,0.736114501953125,2367464.607524542,0.3806242942810059,-0.5325704216957092,-0.01131577137857676,2367464.599064542,114.1792602539062,79.76536560058594,-424.8880615234375,0
2023-02-26T16:57:55.463Z,267,2367464.637553542,-0.38104248046875,-0.2200469970703125,0.745513916015625,2367464.627544542,0.1267800480127335,-0.7875627875328064,-0.07118895649909973,2367464.618656542,114.3179473876953,79.66165161132812,-424.4659423828125,0
2023-02-26T16:57:55.487Z,268,2367464.657573542,-0.3379974365234375,-0.2234344482421875,0.7955780029296875,2367464.647563542,-0.1474520415067673,-0.7893409729003906,-0.04995983466506004,2367464.638279542,114.6516723632812,79.30413818359375,-423.5346984863281,0
2023-02-26T16:57:55.505Z,269,2367464.677562542,-0.2777557373046875,-0.2294158935546875,0.86090087890625,2367464.667552542,-0.2046602070331573,-0.6601606011390686,-0.1319622993469238,2367464.657871542,115.0914306640625,79.34138488769531,-423.1187438964844,0
2023-02-26T16:57:55.524Z,270,2367464.697581542,-0.245513916015625,-0.215240478515625,0.8453521728515625,2367464.687572542,-0.3300476670265198,-0.2516996264457703,-0.2232053875923157,2367464.677494542,115.3291473388672,79.18679809570312,-422.7437744140625,0
2023-02-26T16:57:55.542Z,271,2367464.717599375,-0.2888336181640625,-0.1517333984375,0.816314697265625,2367464.707589375,-0.3750444650650024,0.1064462810754776,-0.1377248466014862,2367464.697086542,115.5665588378906,78.75009155273438,-422.8617553710938,0
2023-02-26T16:57:55.563Z,272,2367464.737588375,-0.352813720703125,-0.1300506591796875,0.8223419189453125,2367464.727578375,-0.2531752586364746,0.01712918654084206,0.0293488334864378,2367464.716676375,115.4358367919922,78.64921569824219,-422.939208984375,0
2023-02-26T16:57:55.583Z,273,2367464.757608375,-0.4006195068359375,-0.0930023193359375,0.688079833984375,2367464.747598375,-0.6355636715888977,-0.6903699040412903,0.2603455781936646,2367464.736269375,115.6427307128906,78.66220092773438,-423.0895385742188,0
2023-02-26T16:57:55.605Z,274,2367464.777627375,-0.337432861328125,-0.0724639892578125,0.6524658203125,2367464.767617375,-1.39387321472168,-1.291715383529663,0.5223422646522522,2367464.755892375,115.7594604492188,78.28141784667969,-422.7262573242188,0
2023-02-26T16:57:55.623Z,275,2367464.797616375,-0.3274383544921875,0.0636444091796875,0.67486572265625,2367464.787637375,-1.761046171188354,-1.049848675727844,0.7472907304763794,2367464.775484375,116.0221862792969,77.6739501953125,-422.5382080078125,0
2023-02-26T16:57:55.647Z,276,2367464.817636375,-0.36260986328125,0.1452178955078125,0.711944580078125,2367464.807626375,-1.942965865135193,-0.8926734924316406,0.8807792663574219,2367464.795076375,116.1279754638672,77.338134765625,-422.297119140625,0
2023-02-26T16:57:55.663Z,277,2367464.837655375,-0.3798828125,-0.014434814453125,0.4410247802734375,2367464.827645375,-3.036101579666138,-1.238925933837891,1.256500482559204,2367464.814668375,115.8655700683594,76.70988464355469,-423.072998046875,0
2023-02-26T16:57:55.692Z,278,2367464.857644375,-0.352569580078125,-0.2457275390625,0.1734161376953125,2367464.847665375,-4.485614776611328,-1.508326053619385,1.553425312042236,2367464.834291375,115.9157867431641,76.16702270507812,-423.515625,0
2023-02-26T16:57:55.707Z,279,2367464.877664375,-0.2942047119140625,-0.455230712890625,0.05267333984375,2367464.867654375,-4.371655464172363,-1.688049674034119,1.399595022201538,2367464.853883375,115.7269287109375,75.07992553710938,-424.6590576171875,0
2023-02-26T16:57:55.726Z,280,2367464.897683375,-0.1964263916015625,-0.5912017822265625,0.1536407470703125,2367464.887673375,-2.511053800582886,-1.010435223579407,0.5416411757469177,2367464.873506375,115.9006042480469,74.02493286132812,-425.9426574707031,0
2023-02-26T16:57:55.743Z,281,2367464.917703375,-0.2175140380859375,-0.604888916015625,0.3900909423828125,2367464.907693375,-0.09659897536039352,0.2722831964492798,-0.7232924699783325,2367464.893099375,115.9915618896484,73.1162109375,-426.3609008789062,0
2023-02-26T16:57:55.773Z,282,2367464.937692375,-0.30194091796875,-0.5675506591796875,0.501373291015625,2367464.927682375,1.046794056892395,0.9993082880973816,-1.498670220375061,2367464.912721375,116.5151672363281,72.63137817382812,-426.77880859375,0
2023-02-26T16:57:55.783Z,283,2367464.957711375,-0.3645172119140625,-0.4967041015625,0.625823974609375,2367464.947702375,0.781173050403595,0.7247859239578247,-1.408472895622253,2367464.932344375,116.8814544677734,72.44851684570312,-426.6464233398438,0
2023-02-26T16:57:55.806Z,284,2367464.977731375,-0.3388519287109375,-0.5105743408203125,0.7214508056640625,2367464.967721375,0.1942922472953796,0.1698356419801712,-0.6209918856620789,2367464.951936375,117.4662322998047,71.70549011230469,-426.5400390625,0
2023-02-26T16:57:55.823Z,285,2367464.997720375,-0.269561767578125,-0.483612060546875,0.7556304931640625,2367464.987710375,0.0841769278049469,-0.2202982753515244,0.1273467689752579,2367464.971559375,117.9463806152344,71.6429443359375,-426.5693054199219,0
2023-02-26T16:57:55.848Z,286,2367465.017739375,-0.2735595703125,-0.465728759765625,0.806488037109375,2367465.007730375,0.2503528594970703,-0.3062805533409119,0.5785619020462036,2367464.991182375,117.9220275878906,71.69743347167969,-426.4080810546875,0
2023-02-26T16:57:55.863Z,287,2367465.037759375,-0.330810546875,-0.4712677001953125,0.7898101806640625,2367465.027749375,0.1231613457202911,-0.3081178963184357,0.7823629379272461,2367465.010805375,117.9776916503906,71.9708251953125,-425.7957153320312,0
2023-02-26T16:57:55.885Z,288,2367465.057748375,-0.3848724365234375,-0.449951171875,0.796478271484375,2367465.047738375,-0.03980094194412231,-0.4394348859786987,0.7775444984436035,2367465.030397375,117.4704284667969,72.34284973144531,-425.8469543457031,0
2023-02-26T16:57:55.903Z,289,2367465.077767375,-0.3701324462890625,-0.42230224609375,0.7573699951171875,2367465.067758375,-0.1003423184156418,-0.4609002470970154,0.5620143413543701,2367465.049989375,117.2291870117188,73.02883911132812,-425.7471923828125,0
2023-02-26T16:57:55.926Z,290,2367465.097787375,-0.3193206787109375,-0.459136962890625,0.7250213623046875,2367465.087777375,-0.05122829973697662,-0.2279418259859085,0.2188809514045715,2367465.069612375,116.8613739013672,72.86312866210938,-425.1210327148438,0
2023-02-26T16:57:55.943Z,291,2367465.117776375,-0.2844085693359375,-0.5028839111328125,0.6878204345703125,2367465.107797375,0.2034942656755447,0.06215844675898552,-0.0422542467713356,2367465.108827375,116.9521636962891,73.56611633300781,-425.1559448242188,0
2023-02-26T16:57:55.966Z,292,2367465.137796375,-0.2674560546875,-0.4575958251953125,0.6541748046875,2367465.127786375,0.5152460336685181,0.2420523166656494,-0.1768597215414047,2367465.128450375,116.9261322021484,73.80061340332031,-425.1312866210938,0
2023-02-26T16:57:55.983Z,293,2367465.157815375,-0.2899017333984375,-0.4594573974609375,0.6658935546875,2367465.147805375,0.6689008474349976,0.114469587802887,-0.1526968628168106,2367465.148073375,117.0558471679688,73.81889343261719,-425.040771484375,0
2023-02-26T16:57:56.009Z,294,2367465.177804375,-0.242706298828125,-0.534088134765625,0.6488189697265625,2367465.167825375,0.392227441072464,-0.03677745535969734,0.07685776054859161,2367465.167665375,117.1676788330078,74.01048278808594,-424.6870727539062,0
2023-02-26T16:57:56.023Z,295,2367465.197824375,-0.1972198486328125,-0.5436859130859375,0.5928192138671875,2367465.187814375,0.3242430686950684,-0.01257225032895803,0.269241601228714,2367465.187288375,116.7426300048828,74.16439819335938,-424.49462890625,0
2023-02-26T16:57:56.044Z,296,2367465.217843375,-0.2259063720703125,-0.4600372314453125,0.5923614501953125,2367465.207833375,0.7099018096923828,0.01461649313569069,0.293860912322998,2367465.206911375,116.7998352050781,74.81590270996094,-424.4214477539062,0
2023-02-26T16:57:56.063Z,297,2367465.237863375,-0.2534332275390625,-0.3934326171875,0.641815185546875,2367465.227853375,1.362145662307739,-0.08208688348531723,0.3124005198478699,2367465.226503375,116.71923828125,75.58831787109375,-423.5250244140625,0
2023-02-26T16:57:56.086Z,298,2367465.257852375,-0.235015869140625,-0.3963165283203125,0.5594329833984375,2367465.247842375,1.21793520450592,-0.1029258519411087,0.4845507144927979,2367465.246126375,116.5209503173828,76.30650329589844,-422.9166870117188,0
2023-02-26T16:57:56.107Z,299,2367465.277871375,-0.2117919921875,-0.3833160400390625,0.5504608154296875,2367465.267861375,0.6419922709465027,-0.1229584142565727,0.572996973991394,2367465.265749375,116.3785858154297,76.925048828125,-422.6520385742188,0
2023-02-26T16:57:56.132Z,300,2367465.297891375,-0.17535400390625,-0.3220062255859375,0.631622314453125,2367465.287881375,0.7201510071754456,0.07157964259386063,0.4041722416877747,2367465.285341375,116.1022186279297,77.6800537109375,-422.2360534667969,0
2023-02-26T16:57:56.143Z,301,2367465.317880375,-0.1875,-0.2672882080078125,0.7125244140625,2367465.307870375,1.145499587059021,0.3780301213264465,0.1326600462198257,2367465.304964375,115.8726501464844,78.34469604492188,-422.231201171875,0
2023-02-26T16:57:56.166Z,302,2367465.337899375,-0.205413818359375,-0.2239532470703125,0.6436309814453125,2367465.327890375,1.109148502349854,0.5868536233901978,0.1140962094068527,2367465.324587375,115.618408203125,78.85823059082031,-422.1414184570312,0
2023-02-26T16:57:56.183Z,303,2367465.357919375,-0.2578277587890625,-0.2386474609375,0.644866943359375,2367465.347909375,0.5677403807640076,0.4974025785923004,0.1962387561798096,2367465.344209375,115.3372955322266,79.39955139160156,-421.993408203125,0
2023-02-26T16:57:56.209Z,304,2367465.377908375,-0.31890869140625,-0.2506866455078125,0.8120574951171875,2367465.367929375,0.2566512227058411,0.4031679630279541,0.2380868643522263,2367465.363802375,115.1843872070312,79.83750915527344,-422.1601257324219,0
2023-02-26T16:57:56.223Z,305,2367465.397927375,-0.35162353515625,-0.184661865234375,0.8995208740234375,2367465.387918375,0.4175335764884949,0.4072172939777374,0.2191299498081207,2367465.383424375,114.7594451904297,80.15118408203125,-422.3618469238281,0
2023-02-26T16:57:56.244Z,306,2367465.417947375,-0.35760498046875,-0.1692962646484375,0.7635955810546875,2367465.407937375,0.4559515416622162,0.5060605406761169,0.2360870987176895,2367465.403047375,114.4497680664062,80.54429626464844,-422.3139038085938,0
2023-02-26T16:57:56.263Z,307,2367465.437936375,-0.3978271484375,-0.2646331787109375,0.75286865234375,2367465.427957375,0.3272915780544281,0.4909002184867859,0.1163399219512939,2367465.422640375,114.4423217773438,81.12669372558594,-422.6126403808594,0
2023-02-26T16:57:56.285Z,308,2367465.457955375,-0.4056396484375,-0.3296661376953125,0.8602447509765625,2367465.447946375,0.3928247690200806,0.4613961279392242,-0.04786126688122749,2367465.442262375,114.1786651611328,81.31242370605469,-422.8904418945312,0
2023-02-26T16:57:56.303Z,309,2367465.477975375,-0.4271087646484375,-0.2682952880859375,0.9312896728515625,2367465.467965375,0.7176443934440613,0.4317098557949066,-0.04793476685881615,2367465.461885375,114.0275115966797,81.2998046875,-423.0625915527344,0
2023-02-26T16:57:56.333Z,310,2367465.497995375,-0.406982421875,-0.22113037109375,0.835968017578125,2367465.487985375,0.7105257511138916,0.2566429674625397,0.07816430926322937,2367465.481477375,113.7591094970703,81.7508544921875,-423.0396423339844,0
2023-02-26T16:57:56.343Z,311,2367465.517984375,-0.43280029296875,-0.2923583984375,0.8591156005859375,2367465.507974375,0.2992287874221802,0.1285593062639236,0.1545805186033249,2367465.501100375,113.4927978515625,82.05088806152344,-423.1250305175781,0
2023-02-26T16:57:56.366Z,312,2367465.538003375,-0.45172119140625,-0.2898712158203125,0.9460601806640625,2367465.527993375,0.2194844186306,0.02050554193556309,0.1818598061800003,2367465.520723375,113.5569763183594,82.47401428222656,-422.9981689453125,0
2023-02-26T16:57:56.383Z,313,2367465.558023375,-0.44189453125,-0.2781829833984375,0.9423828125,2367465.548013375,0.4416381120681763,0.1062358915805817,0.0706201046705246,2367465.540315375,113.2403717041016,82.66737365722656,-423.0728149414062,0
2023-02-26T16:57:56.409Z,314,2367465.578012375,-0.4600372314453125,-0.1836700439453125,0.943511962890625,2367465.568002375,0.6907414197921753,0.2242251187562943,-0.1676473170518875,2367465.559938375,113.2751159667969,83.15129089355469,-423.0447692871094,0
2023-02-26T16:57:56.423Z,315,2367465.598031375,-0.430511474609375,-0.262786865234375,0.9243011474609375,2367465.588021375,0.4893374741077423,0.4009013473987579,-0.3937281370162964,2367465.579530375,113.1291809082031,83.40328979492188,-423.0282592773438,0
2023-02-26T16:57:56.444Z,316,2367465.618051375,-0.4499664306640625,-0.3014373779296875,0.9273834228515625,2367465.608041375,0.1542036831378937,0.3217950761318207,-0.2835824489593506,2367465.599153375,113.1854705810547,83.63041687011719,-423.3568725585938,0
2023-02-26T16:57:56.463Z,317,2367465.638040375,-0.456573486328125,-0.25079345703125,0.912994384765625,2367465.628030375,0.212762862443924,0.06005561351776123,0.02423077076673508,2367465.618746375,113.0689392089844,83.50552368164062,-423.517333984375,0
2023-02-26T16:57:56.486Z,318,2367465.658059375,-0.4781646728515625,-0.2096710205078125,0.9157867431640625,2367465.648049375,0.371909111738205,-0.06108146160840988,0.03977511078119278,2367465.638368375,113.1067047119141,84.09527587890625,-423.7504272460938,0
2023-02-26T16:57:56.503Z,319,2367465.678079375,-0.477783203125,-0.2403106689453125,0.9381866455078125,2367465.668069375,0.2561180591583252,0.07932385057210922,-0.1628973037004471,2367465.657991375,112.9823150634766,84.39418029785156,-423.7917175292969,0
2023-02-26T16:57:56.523Z,320,2367465.698068375,-0.4655303955078125,-0.2980804443359375,0.936431884765625,2367465.688089375,0.1247195601463318,0.265654057264328,-0.4297614991664886,2367465.677614375,112.9011077880859,84.60272216796875,-424.0276489257812,0
2023-02-26T16:57:56.543Z,321,2367465.718076875,-0.449951171875,-0.299896240234375,0.8686981201171875,2367465.708067875,0.07082889974117279,0.3691610097885132,-0.4903172552585602,2367465.697206375,112.7434844970703,84.54400634765625,-424.4881591796875,0
2023-02-26T16:57:56.566Z,322,2367465.738096875,-0.4624481201171875,-0.287139892578125,0.8215179443359375,2367465.728086875,0.160008579492569,0.2961746752262115,-0.4083667099475861,2367465.716818875,112.8904571533203,84.57109069824219,-424.8638305664062,0
2023-02-26T16:57:56.583Z,323,2367465.758085875,-0.4946136474609375,-0.281646728515625,0.8447418212890625,2367465.748106875,0.3664943873882294,0.1603017896413803,-0.3675284683704376,2367465.736441875,112.9246520996094,84.74386596679688,-425.5399780273438,0
2023-02-26T16:57:56.608Z,324,2367465.778104875,-0.489288330078125,-0.3048858642578125,0.878631591796875,2367465.768095875,0.4263441264629364,-0.01945678889751434,-0.488384336233139,2367465.756033875,112.6102447509766,85.2120361328125,-426.2140502929688,0
2023-02-26T16:57:56.623Z,325,2367465.798124875,-0.4068145751953125,-0.27783203125,0.8951263427734375,2367465.788114875,0.2091164737939835,-0.00896926037967205,-0.5387689471244812,2367465.775656875,112.7222900390625,85.66798400878906,-426.9584350585938,0
2023-02-26T16:57:56.645Z,326,2367465.818143875,-0.39288330078125,-0.234893798828125,0.9040679931640625,2367465.808134875,-0.05347973480820656,0.1065070033073425,-0.4926493763923645,2367465.795279875,112.6509094238281,86.08694458007812,-428.5009155273438,0
2023-02-26T16:57:56.663Z,327,2367465.838132875,-0.3993988037109375,-0.2884979248046875,0.93408203125,2367465.828123875,-0.1487995982170105,0.1989903301000595,-0.5034186840057373,2367465.814902875,112.8759002685547,86.82382202148438,-430.1297607421875,0
2023-02-26T16:57:56.686Z,328,2367465.858152875,-0.3879547119140625,-0.3291473388671875,0.945587158203125,2367465.848142875,-0.1062750369310379,0.3853069543838501,-0.6409054398536682,2367465.834524875,113.1172637939453,87.14378356933594,-433.111083984375,0
2023-02-26T16:57:56.707Z,329,2367465.878172875,-0.3766326904296875,-0.348297119140625,0.89990234375,2367465.868162875,-0.04926848039031029,0.4716647267341614,-0.7605623006820679,2367465.854147875,113.9371948242188,87.35940551757812,-437.3753967285156,0
2023-02-26T16:57:56.726Z,330,2367465.898161875,-0.3358154296875,-0.3494720458984375,0.864837646484375,2367465.888151875,-0.06502320617437363,0.3423168659210205,-0.5683992505073547,2367465.873770875,115.0222015380859,87.58049011230469,-442.7024536132812,0
2023-02-26T16:57:56.743Z,331,2367465.918180875,-0.3078460693359375,-0.3751983642578125,0.8775634765625,2367465.908170875,-0.05740790069103241,0.2595578134059906,-0.3098963499069214,2367465.893362875,117.6893615722656,87.06764221191406,-449.9931030273438,0
2023-02-26T16:57:56.763Z,332,2367465.938200875,-0.3665618896484375,-0.386138916015625,0.887847900390625,2367465.928190875,-0.1892958879470825,0.2325634658336639,-0.1410689800977707,2367465.912985875,122.0184936523438,85.53096008300781,-460.6089172363281,0
2023-02-26T16:57:56.783Z,333,2367465.958189875,-0.4251861572265625,-0.355682373046875,0.9111328125,2367465.948209875,-0.328943282365799,0.2402498871088028,-0.04401672631502151,2367465.932608875,128.8139343261719,81.19319152832031,-475.5546264648438,0
2023-02-26T16:57:56.807Z,334,2367465.978208875,-0.41937255859375,-0.3239593505859375,0.8874664306640625,2367465.968198875,-0.3034469783306122,0.3945395946502686,-0.1506536900997162,2367465.952231875,140.4518432617188,71.20262145996094,-496.4797973632812,0
2023-02-26T16:57:56.823Z,335,2367465.998228875,-0.421173095703125,-0.2729339599609375,0.83642578125,2367465.988218875,-0.1914083063602448,0.5671068429946899,-0.2848911285400391,2367465.971823875,159.7948303222656,49.66348266601562,-523.240234375,0
2023-02-26T16:57:56.848Z,336,2367466.018217875,-0.451995849609375,-0.2599029541015625,0.8503265380859375,2367466.008237875,-0.08511941879987717,0.4866226315498352,-0.3638072311878204,2367465.991446875,191.7457885742188,6.912063598632812,-550.2885131835938,0
2023-02-26T16:57:56.863Z,337,2367466.038236875,-0.409576416015625,-0.342437744140625,0.8619384765625,2367466.028226875,-0.298004537820816,0.4430837035179138,-0.4318906962871552,2367466.011068875,231.3621673583984,-63.93284606933594,-560.417236328125,0
2023-02-26T16:57:56.886Z,338,2367466.058256875,-0.3643798828125,-0.377960205078125,0.8203887939453125,2367466.048246875,-0.443816065788269,0.5961422324180603,-0.4160566031932831,2367466.030691875,258.267822265625,-150.3533020019531,-534.8889770507812,0
2023-02-26T16:57:56.903Z,339,2367466.078245875,-0.4131011962890625,-0.386688232421875,0.741668701171875,2367466.068266875,-0.3168791532516479,0.6800914406776428,-0.3919725716114044,2367466.050314875,254.9154968261719,-224.0523986816406,-473.9090576171875,0
2023-02-26T16:57:56.932Z,340,2367466.098264875,-0.4885406494140625,-0.38311767578125,0.748291015625,2367466.088255875,-0.223649874329567,0.4657679498195648,-0.3608261048793793,2367466.069906875,212.5132293701172,-251.7550659179688,-388.5562133789062,0
2023-02-26T16:57:56.943Z,341,2367466.118284875,-0.5717315673828125,-0.438812255859375,0.841949462890625,2367466.108274875,-0.3371790945529938,0.2910009324550629,-0.2666090428829193,2367466.109152875,90.50132751464844,-122.2120208740234,-303.8413696289062,0
2023-02-26T16:57:56.967Z,342,2367466.138303875,-0.62518310546875,-0.416351318359375,0.96624755859375,2367466.128294875,-0.3074331879615784,0.1958685666322708,-0.3439158201217651,2367466.128775875,65.17955017089844,-43.51132202148438,-321.2620239257812,0
2023-02-26T16:57:56.984Z,343,2367466.158292875,-0.63848876953125,-0.3231964111328125,1.047531127929688,2367466.148283875,-0.01911110989749432,0.3835540413856506,-0.6300746202468872,2367466.148367875,63.05232238769531,9.011627197265625,-346.3101806640625,0
2023-02-26T16:57:57.010Z,344,2367466.178312875,-0.62591552734375,-0.31622314453125,1.122344970703125,2367466.168302875,0.3097274899482727,0.8543492555618286,-0.8354051113128662,2367466.167990875,69.17941284179688,38.57221984863281,-368.6510620117188,0
2023-02-26T16:57:57.023Z,345,2367466.198331875,-0.6138916015625,-0.4003143310546875,1.057723999023438,2367466.188322875,0.4610696136951447,1.404070973396301,-0.667380154132843,2367466.187613875,76.25453186035156,54.57177734375,-385.5622253417969,0
2023-02-26T16:57:57.044Z,346,2367466.218320875,-0.7834625244140625,-0.3367767333984375,0.9336700439453125,2367466.208311875,0.5160636305809021,1.116363883018494,-0.4425598382949829,2367466.207235875,81.72296142578125,63.36817932128906,-398.1312561035156,0
2023-02-26T16:57:57.063Z,347,2367466.238340875,-0.9597320556640625,-0.3216400146484375,0.856842041015625,2367466.228330875,-0.1830750107765198,-0.7003684639930725,-0.3624756634235382,2367466.226858875,86.17454528808594,66.8145751953125,-404.4455261230469,0
2023-02-26T16:57:57.086Z,348,2367466.258360875,-0.7957305908203125,-0.391998291015625,0.998779296875,2367466.248350875,-0.6976685523986816,-1.149759650230408,-0.2583918571472168,2367466.246451875,89.86430358886719,67.248291015625,-406.6184692382812,0
2023-02-26T16:57:57.103Z,349,2367466.278349875,-0.7015838623046875,-0.4197998046875,1.091049194335938,2367466.268369875,-0.2607373297214508,-0.516815721988678,-0.5904707312583923,2367466.266073875,92.87409973144531,66.36492919921875,-407.4890747070312,0
2023-02-26T16:57:57.133Z,350,2367466.298368875,-0.62677001953125,-0.44970703125,1.098175048828125,2367466.288358875,0.3058605790138245,0.1244753524661064,-1.074892520904541,2367466.285696875,95.20993041992188,65.00321960449219,-407.4689636230469,0
2023-02-26T16:57:57.143Z,351,2367466.318388875,-0.5837860107421875,-0.47943115234375,1.07574462890625,2367466.308378875,0.3083402514457703,0.2906755208969116,-1.10053288936615,2367466.305319875,97.37873840332031,63.66302490234375,-407.1257934570312,0
2023-02-26T16:57:57.166Z,352,2367466.338377875,-0.5605010986328125,-0.5236968994140625,1.069686889648438,2367466.328397875,-0.01267744600772858,-0.09662853926420212,-0.7384724617004395,2367466.324942875,98.99436950683594,61.745849609375,-406.1514282226562,0
2023-02-26T16:57:57.183Z,353,2367466.358396875,-0.483978271484375,-0.562286376953125,1.038497924804688,2367466.348386875,-0.1878399401903152,-0.3726020753383636,-0.1893587410449982,2367466.344534875,99.68083190917969,59.15907287597656,-404.379638671875,0
2023-02-26T16:57:57.209Z,354,2367466.378416875,-0.50738525390625,-0.577911376953125,1.011550903320312,2367466.368406875,-0.06137680634856224,-0.550972580909729,0.2991118729114532,2367466.364157875,99.55348205566406,56.65069580078125,-401.9842224121094,0
2023-02-26T16:57:57.224Z,355,2367466.398435875,-0.5457611083984375,-0.5691680908203125,1.034683227539062,2367466.388425875,0.0929080992937088,-0.6359782814979553,0.5290742516517639,2367466.383780875,99.33418273925781,54.07182312011719,-399.0672607421875,0
2023-02-26T16:57:57.247Z,356,2367466.418424875,-0.5998687744140625,-0.532379150390625,1.12646484375,2367466.408414875,0.2171879708766937,-0.4952515661716461,0.4679363071918488,2367466.403372875,98.85777282714844,49.85528564453125,-395.0072631835938,0
2023-02-26T16:57:57.263Z,357,2367466.438444875,-0.630828857421875,-0.5138397216796875,1.140411376953125,2367466.428434875,0.150048092007637,-0.2666543424129486,0.2933807373046875,2367466.422995875,98.3131103515625,43.57453918457031,-389.2850341796875,0
2023-02-26T16:57:57.283Z,358,2367466.458463875,-0.6438140869140625,-0.512237548828125,1.162017822265625,2367466.448454875,0.04058364406228065,-0.09623705595731735,0.06575317680835724,2367466.442618875,99.15005493164062,31.97332763671875,-381.4562377929688,0
2023-02-26T16:57:57.303Z,359,2367466.478452875,-0.6116485595703125,-0.536407470703125,1.146453857421875,2367466.468443875,0.1639588475227356,0.1273651421070099,-0.09963231533765793,2367466.462210875,103.6792602539062,12.3970947265625,-371.9752197265625,0
2023-02-26T16:57:57.326Z,360,2367466.498472875,-0.5816802978515625,-0.52752685546875,1.082504272460938,2367466.488462875,0.496159702539444,0.2581396698951721,-0.09086039662361145,2367466.481833875,116.2978973388672,-15.34156799316406,-363.6871337890625,0
2023-02-26T16:57:57.343Z,361,2367466.518491875,-0.585174560546875,-0.4938507080078125,1.032516479492188,2367466.508482875,0.6479199528694153,0.07064540684223175,0.002373409224674106,2367466.501455875,141.7632598876953,-47.63348388671875,-362.9848937988281,0
2023-02-26T16:57:57.374Z,362,2367466.538480875,-0.53826904296875,-0.5076141357421875,1.074371337890625,2367466.528501875,0.6427997350692749,-0.2386501282453537,0.2125359624624252,2367466.521048875,178.8626708984375,-75.14793395996094,-380.7404174804688,0
2023-02-26T16:57:57.383Z,363,2367466.558500875,-0.49176025390625,-0.4842071533203125,1.054306030273438,2367466.548490875,0.4768128991127014,-0.4959828555583954,0.4731878042221069,2367466.540671875,211.7379913330078,-79.65283203125,-421.3485717773438,0
2023-02-26T16:57:57.406Z,364,2367466.578519875,-0.482269287109375,-0.455230712890625,1.035598754882812,2367466.568510875,0.2717407047748566,-0.6379876732826233,0.7147727012634277,2367466.560293875,218.1459197998047,-51.072265625,-470.4744262695312,0
2023-02-26T16:57:57.424Z,365,2367466.598508875,-0.478240966796875,-0.4429473876953125,1.029708862304688,2367466.588529875,0.2528514266014099,-0.6556870341300964,0.7559942007064819,2367466.579916875,193.8116149902344,-0.3267669677734375,-496.816650390625,0
2023-02-26T16:57:57.443Z,366,2367466.618528875,-0.4893798828125,-0.4300079345703125,1.004791259765625,2367466.608518875,0.4125228524208069,-0.5165104866027832,0.5208786129951477,2367466.599508875,160.4234161376953,43.73753356933594,-490.9789428710938,0
2023-02-26T16:57:57.464Z,367,2367466.638547875,-0.4959869384765625,-0.3851470947265625,0.9842987060546875,2367466.628538875,0.5564113259315491,-0.4369714558124542,0.1934490948915482,2367466.619131875,137.0994720458984,67.96147155761719,-470.7955932617188,0
2023-02-26T16:57:57.486Z,368,2367466.658537875,-0.45318603515625,-0.3722686767578125,0.9869232177734375,2367466.648557875,0.4310416877269745,-0.3085996508598328,0.004560663364827633,2367466.638724875,124.9396514892578,77.27555847167969,-453.4606018066406,0
2023-02-26T16:57:57.506Z,369,2367466.678556875,-0.4170379638671875,-0.359405517578125,0.9521331787109375,2367466.668546875,0.09337948262691498,-0.1673434525728226,-0.01689855568110943,2367466.658346875,119.6282958984375,79.93006896972656,-441.5576171875,0
2023-02-26T16:57:57.527Z,370,2367466.698576875,-0.4008331298828125,-0.360870361328125,0.919921875,2367466.688566875,-0.1577952206134796,-0.1036411747336388,-0.02298467792570591,2367466.677939875,117.6128540039062,79.84085083007812,-434.5865478515625,0
2023-02-26T16:57:57.544Z,371,2367466.718567917,-0.3571014404296875,-0.39324951171875,0.8367462158203125,2367466.708557917,-0.0985121950507164,-0.02885375171899796,-0.1230257898569107,2367466.697561875,116.9579772949219,79.00254821777344,-430.421630859375,0
2023-02-26T16:57:57.569Z,372,2367466.738556917,-0.355682373046875,-0.35540771484375,0.7564239501953125,2367466.728546917,0.1196294650435448,-0.04853238165378571,-0.2991371750831604,2367466.717156917,116.7203063964844,78.1497802734375,-428.3114318847656,0
2023-02-26T16:57:57.584Z,373,2367466.758576917,-0.35528564453125,-0.3457794189453125,0.7709503173828125,2367466.748566917,0.2365752607584,-0.250078022480011,-0.342578649520874,2367466.736779917,116.6032562255859,77.89236450195312,-426.4915771484375,0
2023-02-26T16:57:57.605Z,374,2367466.778595917,-0.335723876953125,-0.36083984375,0.817535400390625,2367466.768585917,0.1888452768325806,-0.5946114063262939,-0.08075956255197525,2367466.756371917,116.749267578125,77.07014465332031,-425.410888671875,0
2023-02-26T16:57:57.624Z,375,2367466.798584917,-0.2830352783203125,-0.3620758056640625,0.8502349853515625,2367466.788574917,-0.06779502332210541,-0.853273332118988,0.3434641659259796,2367466.775994917,117.2171783447266,76.9776611328125,-424.3932800292969,0
2023-02-26T16:57:57.644Z,376,2367466.818604917,-0.2879638671875,-0.3120880126953125,0.833953857421875,2367466.808594917,-0.2819541990756989,-0.9329602122306824,0.6341577768325806,2367466.795617917,117.371337890625,76.89920043945312,-423.5382385253906,0
2023-02-26T16:57:57.664Z,377,2367466.838623917,-0.31170654296875,-0.300140380859375,0.8059539794921875,2367466.828613917,-0.3192096948623657,-1.086064457893372,0.6800946593284607,2367466.815240917,117.3810424804688,76.75653076171875,-422.9669799804688,0
2023-02-26T16:57:57.683Z,378,2367466.858612917,-0.29144287109375,-0.324676513671875,0.811737060546875,2367466.848633917,-0.311570405960083,-0.9937564134597778,0.5390619039535522,2367466.834832917,117.6211395263672,76.98764038085938,-422.3836059570312,0
2023-02-26T16:57:57.704Z,379,2367466.878632917,-0.3017578125,-0.2793731689453125,0.8429412841796875,2367466.868622917,-0.1080305948853493,-0.8103247880935669,0.3492938280105591,2367466.854455917,117.9149322509766,77.10078430175781,-421.7314453125,0
2023-02-26T16:57:57.724Z,380,2367466.898651917,-0.2863922119140625,-0.2331085205078125,0.8253936767578125,2367466.888642917,0.03460671380162239,-0.6138631701469421,0.2114440649747849,2367466.874047917,118.2614593505859,77.08570861816406,-421.2434692382812,0
2023-02-26T16:57:57.744Z,381,2367466.918640917,-0.28265380859375,-0.1904754638671875,0.8386077880859375,2367466.908661917,-0.1006874591112137,-0.4728402495384216,0.07899308204650879,2367466.893670917,118.5423889160156,77.29496765136719,-420.6431274414062,0
2023-02-26T16:57:57.764Z,382,2367466.938660917,-0.3028411865234375,-0.1728668212890625,0.8181304931640625,2367466.928650917,-0.4414075016975403,-0.6333985328674316,0.0066062374971807,2367466.913293917,118.6610565185547,77.19268798828125,-420.3353881835938,0
2023-02-26T16:57:57.784Z,383,2367466.958679917,-0.2334442138671875,-0.205413818359375,0.790740966796875,2367466.948670917,-0.8113317489624023,-0.574657678604126,-0.01854625344276428,2367466.932885917,118.6337585449219,76.63124084472656,-420.3304443359375,0
2023-02-26T16:57:57.805Z,384,2367466.978699917,-0.201568603515625,-0.1918487548828125,0.711822509765625,2367466.968689917,-0.9167218208312988,-0.3347561359405518,-0.0761198028922081,2367466.952508917,119.1720581054688,76.39179992675781,-420.0732116699219,0
2023-02-26T16:57:57.824Z,385,2367466.998688917,-0.20367431640625,-0.2205810546875,0.7212982177734375,2367466.988678917,-0.8243458271026611,-0.09769885987043381,-0.2358450144529343,2367466.972131917,119.4340209960938,75.95510864257812,-420.2448120117188,0
2023-02-26T16:57:57.844Z,386,2367467.018707917,-0.287811279296875,-0.1996917724609375,0.790252685546875,2367467.008698917,-0.469520092010498,-0.1146064698696136,-0.4266466498374939,2367466.991753917,119.6809539794922,75.36723327636719,-420.55908203125,0
2023-02-26T16:57:57.864Z,387,2367467.038727917,-0.3017578125,-0.17169189453125,0.815826416015625,2367467.028717917,-0.2776563763618469,-0.6103017330169678,-0.4827054142951965,2367467.011346917,119.6076507568359,74.75967407226562,-420.596923828125,0
2023-02-26T16:57:57.884Z,388,2367467.058716917,-0.2380523681640625,-0.2083892822265625,0.784698486328125,2367467.048706917,-0.6541708707809448,-0.8988946080207825,-0.2670809626579285,2367467.030968917,120.2532501220703,74.45989990234375,-420.4324340820312,0
2023-02-26T16:57:57.904Z,389,2367467.078736917,-0.1962432861328125,-0.2099456787109375,0.793182373046875,2367467.068726917,-1.160651683807373,-0.9629990458488464,0.1343085318803787,2367467.050561917,120.7414093017578,73.99813842773438,-420.2797546386719,0
2023-02-26T16:57:57.923Z,390,2367467.098755917,-0.1654510498046875,-0.1937103271484375,0.80499267578125,2367467.088745917,-1.294692277908325,-0.8656003475189209,0.328719288110733,2367467.089806917,121.8032379150391,72.66378784179688,-420.4027099609375,0
2023-02-26T16:57:57.943Z,391,2367467.118744917,-0.1307220458984375,-0.1733245849609375,0.805938720703125,2367467.108765917,-1.000425815582275,-0.554321825504303,0.2900749742984772,2367467.109399917,121.8565368652344,72.21629333496094,-420.5726318359375,0
2023-02-26T16:57:57.963Z,392,2367467.138764917,-0.165924072265625,-0.054046630859375,0.7656097412109375,2367467.128754917,-0.6841208338737488,-0.346384584903717,0.06811060756444931,2367467.128991917,121.7670593261719,72.03414916992188,-420.7686462402344,0
2023-02-26T16:57:57.983Z,393,2367467.158783917,-0.21685791015625,-0.03240966796875,0.654541015625,2367467.148773917,-1.067270278930664,-0.8274700045585632,0.2173877060413361,2367467.148583917,122.3074340820312,71.77226257324219,-421.0523071289062,0
2023-02-26T16:57:58.005Z,394,2367467.178772917,-0.179931640625,-0.178009033203125,0.5890960693359375,2367467.168793917,-1.98160457611084,-1.131449580192566,0.8505507707595825,2367467.168176917,122.1043395996094,71.00970458984375,-421.3187255859375,0
2023-02-26T16:57:58.024Z,395,2367467.198792917,-0.1948394775390625,-0.37432861328125,0.432220458984375,2367467.188782917,-2.723751544952393,-1.378964304924011,1.394839882850647,2367467.187798917,122.0634613037109,70.299560546875,-422.0938110351562,0
2023-02-26T16:57:58.044Z,396,2367467.218811917,-0.11962890625,-0.558380126953125,0.3983001708984375,2367467.208801917,-2.695614337921143,-1.435817718505859,1.094134926795959,2367467.207421917,121.9074554443359,69.70855712890625,-423.0584716796875,0
2023-02-26T16:57:58.064Z,397,2367467.238800917,-0.0427703857421875,-0.70172119140625,0.394500732421875,2367467.228821917,-1.770211458206177,-0.4917036890983582,-0.103999100625515,2367467.227013917,122.0939483642578,68.67774963378906,-423.6682739257812,0
2023-02-26T16:57:58.086Z,398,2367467.258820917,-0.057952880859375,-0.8265228271484375,0.4296875,2367467.248810917,-0.4754184484481812,0.758078932762146,-1.305421352386475,2367467.246636917,122.2973937988281,67.72822570800781,-424.4013671875,0
2023-02-26T16:57:58.105Z,399,2367467.278839917,-0.1526336669921875,-0.750579833984375,0.5095367431640625,2367467.268830917,0.5298590660095215,1.219452619552612,-1.639285087585449,2367467.266259917,122.9990692138672,67.333740234375,-424.69775390625,0
2023-02-26T16:57:58.132Z,400,2367467.298859917,-0.2423553466796875,-0.7326507568359375,0.640472412109375,2367467.288849917,0.7272144556045532,0.6884982585906982,-1.013003587722778,2367467.285882917,123.5105590820312,66.95701599121094,-424.569580078125,0
2023-02-26T16:57:58.144Z,401,2367467.318848917,-0.2006683349609375,-0.664398193359375,0.764434814453125,2367467.308838917,0.3379285037517548,-0.1857964992523193,-0.00213132775388658,2367467.305505917,123.6802215576172,66.96780395507812,-424.536865234375,0
2023-02-26T16:57:58.174Z,402,2367467.338867917,-0.1051177978515625,-0.57879638671875,0.897491455078125,2367467.328858917,0.1306059509515762,-0.4199786484241486,0.6082742214202881,2367467.325097917,123.7321166992188,67.33158874511719,-424.2537841796875,0
2023-02-26T16:57:58.184Z,403,2367467.358887917,-0.10247802734375,-0.5334014892578125,0.921630859375,2367467.348877917,0.1101760417222977,-0.09900887310504913,0.7884735465049744,2367467.344720917,123.3818206787109,67.43235778808594,-424.1328735351562,0
2023-02-26T16:57:58.210Z,404,2367467.378876917,-0.1921844482421875,-0.5397491455078125,0.86114501953125,2367467.368866917,-0.03971438854932785,0.1277529001235962,0.7734578847885132,2367467.364342917,122.9252624511719,67.77304077148438,-423.9796142578125,0
2023-02-26T16:57:58.224Z,405,2367467.398895917,-0.307281494140625,-0.5616607666015625,0.8007965087890625,2367467.388886917,-0.2098680138587952,-0.1230561509728432,0.8133118152618408,2367467.383935917,122.5270080566406,68.16915893554688,-423.9165954589844,0
2023-02-26T16:57:58.248Z,406,2367467.418915917,-0.29791259765625,-0.573760986328125,0.772216796875,2367467.408905917,-0.276265412569046,-0.4966520965099335,0.784907341003418,2367467.403558917,122.0638885498047,68.5098876953125,-424.0922241210938,0
2023-02-26T16:57:58.264Z,407,2367467.438904917,-0.2279510498046875,-0.59259033203125,0.7750701904296875,2367467.428925917,-0.2304340004920959,-0.4093073606491089,0.5240365862846375,2367467.423150917,121.8470306396484,68.89993286132812,-423.8978881835938,0
2023-02-26T16:57:58.286Z,408,2367467.458924917,-0.1833648681640625,-0.5827178955078125,0.761016845703125,2367467.448914917,-0.0636729821562767,0.001910551800392568,0.04726019129157066,2367467.442773917,121.6726379394531,68.61968994140625,-423.9906005859375,0
2023-02-26T16:57:58.307Z,409,2367467.478943917,-0.2005615234375,-0.57330322265625,0.7836151123046875,2367467.468933917,0.1930192559957504,0.3424420356750488,-0.3226086795330048,2367467.462365917,122.0629577636719,68.65213012695312,-424.1723327636719,0
2023-02-26T16:57:58.333Z,410,2367467.498932917,-0.2531585693359375,-0.5438995361328125,0.7578582763671875,2367467.488953917,0.2617684900760651,0.2725755870342255,-0.429437130689621,2367467.481957917,121.8581695556641,68.689453125,-424.0078735351562,0
2023-02-26T16:57:58.344Z,411,2367467.518952917,-0.2355804443359375,-0.558380126953125,0.7878265380859375,2367467.508942917,0.08569013327360153,-0.06637715548276901,-0.2762547433376312,2367467.501580917,121.8650207519531,68.53544616699219,-424.0606689453125,0
2023-02-26T16:57:58.366Z,412,2367467.538971917,-0.183624267578125,-0.560516357421875,0.832550048828125,2367467.528961917,0.02659379318356514,-0.1657452881336212,-0.1717208921909332,2367467.521203917,122.4107971191406,68.68377685546875,-423.9425659179688,0
2023-02-26T16:57:58.384Z,413,2367467.558991917,-0.13641357421875,-0.5484161376953125,0.8274078369140625,2367467.548981917,0.04363589361310005,-0.08811654150485992,-0.1856164634227753,2367467.540795917,122.2974395751953,68.531982421875,-423.8496704101562,0
2023-02-26T16:57:58.408Z,414,2367467.578980917,-0.1165924072265625,-0.5546417236328125,0.835357666015625,2367467.568970917,0.09854415059089661,0.07153730094432831,-0.2163048684597015,2367467.560418917,122.2896118164062,68.3887939453125,-423.7909545898438,0
2023-02-26T16:57:58.424Z,415,2367467.598999917,-0.1193389892578125,-0.5560760498046875,0.817718505859375,2367467.588989917,0.07680849730968475,0.1984065622091293,-0.1645665764808655,2367467.580041917,122.5200347900391,68.23190307617188,-423.666259765625,0
2023-02-26T16:57:58.447Z,416,2367467.619019917,-0.145294189453125,-0.5782470703125,0.777587890625,2367467.609009917,-0.03317872434854507,0.1570567339658737,0.003680488560348749,2367467.599633917,122.6081848144531,68.38374328613281,-423.7999267578125,0
2023-02-26T16:57:58.464Z,417,2367467.639008917,-0.172393798828125,-0.6253204345703125,0.7294464111328125,2367467.628998917,-0.126251682639122,-0.03798067197203636,0.2447024285793304,2367467.619256917,122.330322265625,68.387939453125,-423.729248046875,0
2023-02-26T16:57:58.484Z,418,2367467.659027917,-0.159423828125,-0.626007080078125,0.6681976318359375,2367467.649018917,-0.0300401896238327,-0.1578996181488037,0.4130469560623169,2367467.638879917,122.1088714599609,68.40614318847656,-424.0575866699219,0
2023-02-26T16:57:58.505Z,419,2367467.679047917,-0.1436004638671875,-0.6005401611328125,0.6537628173828125,2367467.669037917,0.3069013357162476,-0.09843229502439499,0.4024910032749176,2367467.658471917,121.9838562011719,68.71354675292969,-423.8105163574219,0
2023-02-26T16:57:58.526Z,420,2367467.699036917,-0.1445770263671875,-0.5746002197265625,0.6362152099609375,2367467.689057917,0.6572633385658264,0.06113259494304657,0.3601533770561218,2367467.678063917,121.6004333496094,68.75929260253906,-423.8051452636719,0
2023-02-26T16:57:58.544Z,421,2367467.71904725,-0.174102783203125,-0.541900634765625,0.6196746826171875,2367467.709046917,0.7609122395515442,0.03898495063185692,0.3738209903240204,2367467.697686917,121.5916290283203,69.422607421875,-423.2761840820312,0
2023-02-26T16:57:58.567Z,422,2367467.73906725,-0.1724395751953125,-0.5075836181640625,0.59222412109375,2367467.72905725,0.8855977058410645,0.0574510432779789,0.4194864928722382,2367467.71727025,121.4392395019531,69.98545837402344,-423.1510009765625,0
2023-02-26T16:57:58.584Z,423,2367467.75905625,-0.1654052734375,-0.47430419921875,0.5002899169921875,2367467.74907725,0.9700912833213806,0.1207245513796806,0.2950252592563629,2367467.73689325,121.161376953125,70.77952575683594,-422.40966796875,0
2023-02-26T16:57:58.607Z,424,2367467.77907525,-0.1365814208984375,-0.407684326171875,0.4481964111328125,2367467.76906625,1.105122327804565,0.2464060485363007,0.06023351103067398,2367467.75651625,120.8733673095703,71.24049377441406,-421.8095703125,0
2023-02-26T16:57:58.624Z,425,2367467.79909525,-0.1011810302734375,-0.3408050537109375,0.442657470703125,2367467.78908525,1.348525404930115,0.4684510827064514,-0.1137425452470779,2367467.77610825,120.8321228027344,72.11251831054688,-421.4108276367188,0
2023-02-26T16:57:58.653Z,426,2367467.81911525,-0.1069793701171875,-0.2736663818359375,0.4983367919921875,2367467.80910525,1.520164847373962,0.6439539194107056,-0.1747023016214371,2367467.79573125,120.6322631835938,72.6094970703125,-421.0704345703125,0
2023-02-26T16:57:58.664Z,427,2367467.83910425,-0.1194610595703125,-0.2235870361328125,0.5453033447265625,2367467.82909425,1.38072144985199,0.7742805480957031,-0.06755214929580688,2367467.81532325,120.4541015625,73.36196899414062,-420.462646484375,0
2023-02-26T16:57:58.687Z,428,2367467.85912325,-0.1312713623046875,-0.154571533203125,0.550262451171875,2367467.84911325,0.9071773290634155,0.7472385168075562,0.1235760003328323,2367467.83494625,120.0218658447266,74.01152038574219,-420.4090576171875,0
2023-02-26T16:57:58.708Z,429,2367467.87914325,-0.1516265869140625,-0.1210479736328125,0.6229095458984375,2367467.86913325,0.3764343559741974,0.7112733125686646,0.3637507855892181,2367467.85456925,119.5765991210938,74.57810974121094,-420.4813232421875,0
2023-02-26T16:57:58.733Z,430,2367467.89913225,-0.1874847412109375,-0.185791015625,0.6942901611328125,2367467.88912225,0.2878091335296631,0.8223053216934204,0.5631895661354065,2367467.87416125,119.1310119628906,74.9937744140625,-420.6046142578125,0
2023-02-26T16:57:58.744Z,431,2367467.91915125,-0.2456207275390625,-0.221649169921875,0.6966094970703125,2367467.90914125,0.3834216892719269,0.9313433766365051,0.7625338435173035,2367467.89378425,118.6526641845703,75.56546020507812,-420.8749084472656,0
2023-02-26T16:57:58.765Z,432,2367467.93917125,-0.350372314453125,-0.198211669921875,0.7344512939453125,2367467.92916125,0.5078365802764893,0.7323693037033081,0.864108681678772,2367467.91337625,117.7239532470703,75.93026733398438,-421.2138366699219,0
2023-02-26T16:57:58.784Z,433,2367467.95916025,-0.414398193359375,-0.1712646484375,0.9171295166015625,2367467.94915025,0.6561352610588074,0.3467814028263092,0.6952317953109741,2367467.93299925,116.9996948242188,76.96070861816406,-421.6575317382812,0
2023-02-26T16:57:58.813Z,434,2367467.97917925,-0.363525390625,-0.197113037109375,0.998870849609375,2367467.96916925,0.7374069094657898,0.3354152739048004,0.3363665640354156,2367467.95262225,116.5093688964844,77.68429565429688,-421.5644226074219,0
2023-02-26T16:57:58.824Z,435,2367467.99919925,-0.3514862060546875,-0.2097320556640625,0.9769134521484375,2367467.98918925,0.3304889798164368,0.5915077924728394,0.178702101111412,2367467.97224525,116.2105407714844,78.47224426269531,-421.5282592773438,0
2023-02-26T16:57:58.849Z,436,2367468.01918825,-0.423675537109375,-0.256744384765625,1.069183349609375,2367468.00920925,-0.07117031514644623,0.5481951832771301,0.1111443638801575,2367467.99186725,115.8684387207031,78.78352355957031,-421.6458129882812,0
2023-02-26T16:57:58.865Z,437,2367468.03920725,-0.4167633056640625,-0.3101043701171875,1.074325561523438,2367468.02919825,0.02587607130408287,0.5106608867645264,0.1515743434429169,2367468.01149025,115.5721130371094,79.16899108886719,-422.3255310058594,0
2023-02-26T16:57:58.884Z,438,2367468.05922725,-0.43536376953125,-0.311279296875,1.019515991210938,2367468.04921725,0.07322654128074646,0.5434329509735107,0.02217241376638412,2367468.03108325,115.0292663574219,79.09648132324219,-422.6502685546875,0
2023-02-26T16:57:58.904Z,439,2367468.07921625,-0.40899658203125,-0.3114166259765625,0.9180145263671875,2367468.06923725,-0.02368642017245293,0.5179589986801147,-0.09415899217128754,2367468.05070525,114.9686126708984,79.56724548339844,-423.0278625488281,0
2023-02-26T16:57:58.926Z,440,2367468.09923525,-0.353607177734375,-0.3983306884765625,0.8808135986328125,2367468.08922625,-0.1519959270954132,0.5191158652305603,-0.1329939961433411,2367468.08992025,114.22314453125,79.61537170410156,-423.9721374511719,0
2023-02-26T16:57:58.944Z,441,2367468.11925525,-0.3792572021484375,-0.48211669921875,0.9158172607421875,2367468.10924525,-0.1675842106342316,0.5559788346290588,0.01216292288154364,2367468.10954325,114.0270080566406,79.78225708007812,-424.6841430664062,0
2023-02-26T16:57:58.966Z,442,2367468.13927425,-0.4896697998046875,-0.4086151123046875,0.8967132568359375,2367468.12926525,0.0009861685102805495,0.4268317520618439,0.1547621488571167,2367468.12916625,113.7160491943359,80.037841796875,-425.5728759765625,0
2023-02-26T16:57:58.984Z,443,2367468.15926325,-0.493865966796875,-0.3546600341796875,0.8408966064453125,2367468.14925425,0.01375975459814072,0.1955676376819611,0.01443832740187645,2367468.14878925,113.4916076660156,80.24116516113281,-425.8363647460938,0
2023-02-26T16:57:59.013Z,444,2367468.17928325,-0.4333953857421875,-0.363006591796875,0.907928466796875,2367468.16927325,0.02747103944420815,0.1480182260274887,-0.2625890076160431,2367468.16841225,113.6635284423828,80.29998779296875,-426.7675170898438,0
2023-02-26T16:57:59.024Z,445,2367468.19930325,-0.3868408203125,-0.3945159912109375,0.9461212158203125,2367468.18929325,0.1895579397678375,0.4115180373191833,-0.3830344676971436,2367468.18803425,113.545654296875,80.58015441894531,-427.4531860351562,0
2023-02-26T16:57:59.050Z,446,2367468.21929225,-0.46343994140625,-0.3389892578125,0.8967742919921875,2367468.20928225,0.1094505935907364,0.6051620841026306,-0.3515937328338623,2367468.20765725,113.4528961181641,80.86305236816406,-428.5176391601562,0
2023-02-26T16:57:59.064Z,447,2367468.23931125,-0.4921112060546875,-0.3443145751953125,0.9049530029296875,2367468.22930125,-0.1086005121469498,0.4177732765674591,-0.4929612278938293,2367468.22728025,113.5273132324219,81.29176330566406,-430.4884643554688,0
2023-02-26T16:57:59.088Z,448,2367468.25933125,-0.4036865234375,-0.376983642578125,0.926300048828125,2367468.24932125,-0.2772547602653503,0.3195353746414185,-0.6668283939361572,2367468.24690325,113.8746032714844,81.08387756347656,-432.7644348144531,0
2023-02-26T16:57:59.107Z,449,2367468.27932025,-0.38665771484375,-0.397491455078125,0.929840087890625,2367468.26934025,-0.1350084245204926,0.3587317764759064,-0.5819616913795471,2367468.26649525,114.4582214355469,80.86018371582031,-435.2081909179688,0
2023-02-26T16:57:59.133Z,450,2367468.29933925,-0.4474639892578125,-0.325286865234375,0.9194183349609375,2367468.28932925,-0.09270543605089188,0.3319355845451355,-0.455255925655365,2367468.28611825,115.5921783447266,80.771240234375,-438.8950500488281,0
2023-02-26T16:57:59.144Z,451,2367468.31935925,-0.4005279541015625,-0.3459014892578125,0.8990631103515625,2367468.30934925,-0.2702410817146301,0.3181942105293274,-0.5318162441253662,2367468.30571025,117.3800201416016,80.06918334960938,-443.443115234375,0
2023-02-26T16:57:59.166Z,452,2367468.33934825,-0.321990966796875,-0.388580322265625,0.91131591796875,2367468.32936825,-0.3326152265071869,0.5123311877250671,-0.6682094931602478,2367468.32533325,119.7258911132812,78.15859985351562,-448.8748168945312,0
2023-02-26T16:57:59.184Z,453,2367468.35936725,-0.3137664794921875,-0.4011077880859375,0.85687255859375,2367468.34935725,-0.314929187297821,0.6278447508811951,-0.742609441280365,2367468.34495625,123.4649047851562,74.57838439941406,-455.6142578125,0
2023-02-26T16:57:59.213Z,454,2367468.37938725,-0.3530426025390625,-0.463958740234375,0.804595947265625,2367468.36937725,-0.5143640041351318,0.5449392199516296,-0.5444515943527222,2367468.36454825,128.7819213867188,68.89334106445312,-463.3890380859375,0
2023-02-26T16:57:59.225Z,455,2367468.39940625,-0.36175537109375,-0.535614013671875,0.7550811767578125,2367468.38939725,-0.7027352452278137,0.4123114049434662,-0.2377004474401474,2367468.38417125,135.0277252197266,59.9749755859375,-471.7882080078125,0
2023-02-26T16:57:59.254Z,456,2367468.41939525,-0.3345184326171875,-0.549652099609375,0.7302703857421875,2367468.40938625,-0.5975305438041687,0.4055877029895782,-0.1188299804925919,2367468.40379425,141.7916107177734,46.17752075195312,-480.1898193359375,0
2023-02-26T16:57:59.264Z,457,2367468.43941525,-0.3756561279296875,-0.5694580078125,0.733917236328125,2367468.42940525,-0.3440500497817993,0.5109053254127502,-0.1698644012212753,2367468.42338625,148.2714233398438,25.40093994140625,-486.8890380859375,0
2023-02-26T16:57:59.287Z,458,2367468.45943425,-0.4561004638671875,-0.6074676513671875,0.7291259765625,2367468.44942525,-0.3719152510166168,0.487155556678772,-0.1358395963907242,2367468.44300925,153.1694946289062,-2.90789794921875,-487.8883056640625,0
2023-02-26T16:57:59.309Z,459,2367468.47942325,-0.473724365234375,-0.6163787841796875,0.724700927734375,2367468.46941425,-0.5821859240531921,0.5258145332336426,-0.03801555931568146,2367468.46263225,151.4844512939453,-34.60855102539062,-479.5186157226562,0
2023-02-26T16:57:59.333Z,460,2367468.49944325,-0.4805755615234375,-0.6104888916015625,0.7493133544921875,2367468.48943325,-0.5535873174667358,0.6690470576286316,-0.2270762920379639,2367468.48225425,140.207275390625,-60.2681884765625,-460.594482421875,0
2023-02-26T16:57:59.344Z,461,2367468.51946225,-0.50787353515625,-0.49127197265625,0.792694091796875,2367468.50945325,-0.1760258972644806,0.8892819285392761,-0.7226604819297791,2367468.50187725,122.1619567871094,-70.55470275878906,-433.0865478515625,0
2023-02-26T16:57:59.372Z,462,2367468.53945125,-0.5908050537109375,-0.5197296142578125,0.8608245849609375,2367468.52944225,0.1207453235983849,1.08980119228363,-0.9788193106651306,2367468.52150025,103.5429840087891,-58.18899536132812,-405.1804809570312,0
2023-02-26T16:57:59.384Z,463,2367468.55947125,-0.640380859375,-0.51617431640625,0.909210205078125,2367468.54946125,0.0963268056511879,1.336752891540527,-1.16242241859436,2367468.54109225,89.83865356445312,-28.35810852050781,-390.0547485351562,0
2023-02-26T16:57:59.408Z,464,2367468.57949125,-0.694732666015625,-0.4925537109375,0.9474029541015625,2367468.56948125,0.3202863931655884,1.446885585784912,-1.536921977996826,2367468.56071525,85.04066467285156,1.770950317382812,-389.17724609375,0
2023-02-26T16:57:59.425Z,465,2367468.59948025,-0.7817230224609375,-0.4356689453125,0.9998016357421875,2367468.58950025,0.7500108480453491,1.031737923622131,-1.759063720703125,2367468.58033825,86.38731384277344,24.96961975097656,-394.015869140625,0
2023-02-26T16:57:59.454Z,466,2367468.61949925,-0.8410186767578125,-0.507659912109375,1.018829345703125,2367468.60948925,0.7212199568748474,0.6121461987495422,-1.129992842674255,2367468.59996125,90.63166809082031,39.35098266601562,-400.569580078125,0
2023-02-26T16:57:59.464Z,467,2367468.63951925,-0.878997802734375,-0.5814056396484375,0.985015869140625,2367468.62950925,0.1815511584281921,0.2305783480405807,-0.4358034133911133,2367468.61958425,94.42605590820312,47.83879089355469,-406.136474609375,0
2023-02-26T16:57:59.485Z,468,2367468.65950825,-0.828369140625,-0.6173095703125,1.010635375976562,2367468.64952825,0.1986521035432816,0.0572156198322773,-0.02851393260061741,2367468.63917625,96.92393493652344,52.23788452148438,-410.3990478515625,0
2023-02-26T16:57:59.505Z,469,2367468.67952725,-0.861236572265625,-0.624176025390625,0.99267578125,2367468.66951725,0.6158099174499512,-0.6621792912483215,-0.003666640259325504,2367468.65879925,98.30772399902344,54.95970153808594,-412.7062377929688,0
2023-02-26T16:57:59.527Z,470,2367468.69954725,-0.7760772705078125,-0.695770263671875,1.013946533203125,2367468.68953725,0.3472737967967987,-1.159274578094482,0.05885452777147293,2367468.67839125,100.2718048095703,56.14892578125,-412.8428344726562,0
2023-02-26T16:57:59.545Z,471,2367468.719555292,-0.672332763671875,-0.674957275390625,1.149200439453125,2367468.70955625,0.2552791833877563,-0.9329516887664795,-0.007207845337688923,2367468.69801425,101.7572937011719,56.02162170410156,-411.5779418945312,0
