loggingTime(txt),loggingSample(N),accelerometerTimestamp_sinceReboot(s),accelerometerAccelerationX(G),accelerometerAccelerationY(G),accelerometerAccelerationZ(G),gyroTimestamp_sinceReboot(s),gyroRotationX(rad/s),gyroRotationY(rad/s),gyroRotationZ(rad/s),magnetometerTimestamp_sinceReboot(s),magnetometerX(µT),magnetometerY(µT),magnetometerZ(µT),label(N)
2023-02-13T13:26:20.899Z,1,1757646.383545,-0.085296630859375,-0.143798828125,-0.981719970703125,1757646.364526,0.04580210894346237,0.273127943277359,0.9056185483932495,1757646.374047,122.0903930664062,123.2926330566406,-486.5995483398438,0
2023-02-13T13:26:20.902Z,2,1757646.403565,-0.034759521484375,-0.11865234375,-1.004043579101562,1757646.384545,-0.01976997591555119,0.3776279985904694,0.9341093301773071,1757646.393639,122.7053985595703,123.272705078125,-486.6721801757812,0
2023-02-13T13:26:20.910Z,3,1757646.423554,-0.03924560546875,-0.0915069580078125,-1.002288818359375,1757646.404565,-0.009743440896272659,0.2636289894580841,0.9836670160293579,1757646.413201,123.420654296875,123.3776092529297,-486.6854248046875,0
2023-02-13T13:26:20.922Z,4,1757646.443573,-0.0579376220703125,-0.102935791015625,-1.007568359375,1757646.424554,0.1193809881806374,0.1534777134656906,1.025187611579895,1757646.432793,123.6175689697266,123.3155670166016,-487.0686340332031,0
2023-02-13T13:26:20.946Z,5,1757646.463593,-0.0755767822265625,-0.1108856201171875,-1.020416259765625,1757646.444573,0.2766723334789276,0.0227777510881424,1.002765655517578,1757646.452386,123.7583465576172,123.2859191894531,-487.0211791992188,0
2023-02-13T13:26:20.962Z,6,1757646.483612,-0.1039276123046875,-0.1292724609375,-1.0135498046875,1757646.464593,0.3538818955421448,0.006469084415584803,1.035712718963623,1757646.471947,124.1632232666016,122.8013610839844,-487.0474548339844,0
2023-02-13T13:26:20.986Z,7,1757646.503601,-0.12591552734375,-0.1526336669921875,-1.007217407226562,1757646.484612,0.331481009721756,0.05640894547104836,1.110079884529114,1757646.49154,124.4312438964844,122.3672637939453,-487.1566772460938,0
2023-02-13T13:26:21.002Z,8,1757646.523621,-0.134307861328125,-0.1668243408203125,-0.995697021484375,1757646.504601,0.3089362680912018,0.1245810762047768,1.061326146125793,1757646.511132,124.7511138916016,122.1401672363281,-487.0742797851562,0
2023-02-13T13:26:21.023Z,9,1757646.54364,-0.12469482421875,-0.1732025146484375,-1.001327514648438,1757646.524621,0.3847029507160187,0.143156886100769,0.9984848499298096,1757646.530694,125.1362915039062,121.6771545410156,-487.2649536132812,0
2023-02-13T13:26:21.043Z,10,1757646.56366,-0.133270263671875,-0.1826934814453125,-1.000930786132812,1757646.54464,0.4164608716964722,0.1152741312980652,0.9397315382957458,1757646.550286,125.4615478515625,121.7723236083984,-487.2911682128906,0
2023-02-13T13:26:21.063Z,11,1757646.583649,-0.135833740234375,-0.188812255859375,-1.003219604492188,1757646.56466,0.4016225337982178,0.1777630746364594,0.9083898663520813,1757646.569848,125.8769836425781,121.2696228027344,-487.519287109375,0
2023-02-13T13:26:21.082Z,12,1757646.603668,-0.128875732421875,-0.1888275146484375,-0.9953765869140625,1757646.584649,0.3876835405826569,0.2793376445770264,0.913865327835083,1757646.58944,126.3845520019531,120.6233825683594,-487.7963256835938,0
2023-02-13T13:26:21.104Z,13,1757646.623688,-0.115509033203125,-0.199066162109375,-0.9744415283203125,1757646.604668,0.444984644651413,0.3568958044052124,0.9723661541938782,1757646.609002,126.6947631835938,120.2148895263672,-487.8720703125,0
2023-02-13T13:26:21.122Z,14,1757646.643707,-0.112579345703125,-0.2169189453125,-0.9466094970703125,1757646.624688,0.5012599229812622,0.3531633913516998,0.9506941437721252,1757646.628564,127.0283508300781,119.9529113769531,-487.7200927734375,0
2023-02-13T13:26:21.144Z,15,1757646.663696,-0.1012115478515625,-0.2289886474609375,-0.9316253662109375,1757646.644707,0.4958928525447845,0.3070073425769806,0.886889636516571,1757646.648156,127.595947265625,119.475830078125,-487.8406372070312,0
2023-02-13T13:26:21.162Z,16,1757646.683716,-0.089691162109375,-0.2379150390625,-0.9275360107421875,1757646.664696,0.4736045897006989,0.2644753158092499,0.8362253904342651,1757646.667718,128.0635833740234,119.1024017333984,-487.7801513671875,0
2023-02-13T13:26:21.184Z,17,1757646.703736,-0.074371337890625,-0.2446746826171875,-0.9239959716796875,1757646.684716,0.4439430832862854,0.2953419089317322,0.8269876837730408,1757646.687279,128.4150848388672,118.6995391845703,-487.7607421875,0
2023-02-13T13:26:21.202Z,18,1757646.723725,-0.0660858154296875,-0.25274658203125,-0.91632080078125,1757646.704736,0.4329255819320679,0.327896922826767,0.8160032033920288,1757646.706872,128.6119842529297,118.1548156738281,-487.7784423828125,0
2023-02-13T13:26:21.224Z,19,1757646.743744,-0.0823822021484375,-0.2754974365234375,-0.9032745361328125,1757646.724725,0.4549762904644012,0.2447072118520737,0.8244891166687012,1757646.726434,129.0742797851562,117.9000549316406,-487.8997802734375,0
2023-02-13T13:26:21.244Z,20,1757646.763764,-0.120513916015625,-0.2904815673828125,-0.9000396728515625,1757646.744744,0.4366167485713959,0.1143534705042839,0.7581420540809631,1757646.746026,129.1477203369141,117.4494781494141,-487.7637329101562,0
2023-02-13T13:26:21.263Z,21,1757646.783783,-0.1314849853515625,-0.290771484375,-0.8932342529296875,1757646.764764,0.3618064224720001,0.1434972435235977,0.6086441278457642,1757646.765618,129.5034942626953,116.8136901855469,-488.0233154296875,0
2023-02-13T13:26:21.282Z,22,1757646.803772,-0.10723876953125,-0.2864227294921875,-0.8810272216796875,1757646.784783,0.296628475189209,0.2905822992324829,0.5109745860099792,1757646.78518,129.6507568359375,116.7859649658203,-488.41064453125,0
2023-02-13T13:26:21.303Z,23,1757646.823792,-0.087921142578125,-0.288238525390625,-0.8602447509765625,1757646.804772,0.2089412361383438,0.3249152302742004,0.4971008598804474,1757646.804772,130.0844268798828,116.6577606201172,-488.2039489746094,0
2023-02-13T13:26:21.322Z,24,1757646.843811,-0.0933685302734375,-0.286590576171875,-0.8479156494140625,1757646.824792,0.1831477135419846,0.2448539584875107,0.4843696057796478,1757646.824364,130.4485626220703,116.3146362304688,-488.1935729980469,0
2023-02-13T13:26:21.345Z,25,1757646.863831,-0.099029541015625,-0.30987548828125,-0.8541259765625,1757646.844811,0.1580349057912827,0.167925626039505,0.4174416959285736,1757646.843957,130.7025299072266,115.9421844482422,-488.1410522460938,0
2023-02-13T13:26:21.362Z,26,1757646.883788,-0.09320068359375,-0.3343048095703125,-0.8805084228515625,1757646.864831,0.04931508377194405,0.06434623152017593,0.2774278819561005,1757646.863487,130.6598205566406,115.6638641357422,-488.0914306640625,0
2023-02-13T13:26:21.388Z,27,1757646.903807,-0.1087493896484375,-0.3340301513671875,-0.8972320556640625,1757646.884788,-0.01537602674216032,-0.06770501285791397,0.1466512233018875,1757646.883079,130.7052917480469,115.6637725830078,-488.1366882324219,0
2023-02-13T13:26:21.402Z,28,1757646.923827,-0.1286163330078125,-0.3279266357421875,-0.911651611328125,1757646.904807,0.008183094672858715,-0.0005302353529259562,0.1650336980819702,1757646.902641,130.6636962890625,115.6451721191406,-487.9283752441406,0
2023-02-13T13:26:21.423Z,29,1757646.943816,-0.115447998046875,-0.344268798828125,-0.9214935302734375,1757646.924827,-0.02068929933011532,0.2462955266237259,0.2512607276439667,1757646.922233,130.7200927734375,115.4502105712891,-488.093994140625,0
2023-02-13T13:26:21.442Z,30,1757646.963835,-0.103729248046875,-0.352081298828125,-0.9449005126953125,1757646.944816,-0.04084756597876549,0.2432299554347992,0.2169845104217529,1757646.941795,131.0453643798828,115.7147979736328,-488.305908203125,0
2023-02-13T13:26:21.464Z,31,1757646.983855,-0.08624267578125,-0.3741455078125,-0.964569091796875,1757646.964835,0.03019039332866669,-0.06674787402153015,0.03830824047327042,1757646.961387,131.3969879150391,115.6102447509766,-488.0237426757812,0
2023-02-13T13:26:21.482Z,32,1757647.003874,-0.0923614501953125,-0.3802490234375,-0.9707183837890625,1757646.984855,0.128417894244194,-0.3839505910873413,-0.09695557504892349,1757646.980949,130.7140350341797,115.2637176513672,-488.1668395996094,0
2023-02-13T13:26:21.503Z,33,1757647.023863,-0.1326141357421875,-0.3723602294921875,-0.9831695556640625,1757647.004874,0.2455301284790039,-0.6168522834777832,-0.1393797248601913,1757647.000541,130.5562286376953,114.9933471679688,-488.2642211914062,0
2023-02-13T13:26:21.522Z,34,1757647.043883,-0.167694091796875,-0.3701629638671875,-1.013916015625,1757647.024863,0.295132577419281,-0.4741457402706146,-0.04088990762829781,1757647.020103,130.0406494140625,114.7862396240234,-488.4817504882812,0
2023-02-13T13:26:21.544Z,35,1757647.063903,-0.153564453125,-0.376861572265625,-1.034988403320312,1757647.044883,0.2470963448286057,-0.1084207519888878,0.07452163845300674,1757647.039695,129.8939208984375,114.8496246337891,-488.4322509765625,0
2023-02-13T13:26:21.562Z,36,1757647.083922,-0.1504364013671875,-0.3829193115234375,-1.027130126953125,1757647.064903,0.1161827966570854,-0.1043786033987999,-0.1579608768224716,1757647.059287,129.6786804199219,114.5523986816406,-488.5279541015625,0
2023-02-13T13:26:21.584Z,37,1757647.103911,-0.1308746337890625,-0.3649139404296875,-0.9902801513671875,1757647.084922,0.0707269012928009,-0.1352867186069489,-0.2818167805671692,1757647.078849,129.8759307861328,114.353271484375,-488.6509704589844,0
2023-02-13T13:26:21.602Z,38,1757647.123931,-0.125946044921875,-0.3649749755859375,-0.9949798583984375,1757647.104911,0.09257334470748901,-0.336749792098999,-0.3767201006412506,1757647.098441,129.6213226318359,114.2260284423828,-488.49462890625,0
2023-02-13T13:26:21.624Z,39,1757647.14395,-0.2079620361328125,-0.2423248291015625,-1.02008056640625,1757647.124931,0.1768072694540024,-0.6042022705078125,-0.3677529692649841,1757647.118034,129.2219085693359,114.3049926757812,-488.5025024414062,0
2023-02-13T13:26:21.643Z,40,1757647.163939,-0.244873046875,-0.2432708740234375,-0.9564666748046875,1757647.164939,0.3097160458564758,-1.089726328849792,-0.4490244090557098,1757647.137595,128.8478698730469,114.3906555175781,-488.6878662109375,0
2023-02-13T13:26:21.664Z,41,1757647.183959,-0.187896728515625,-0.3609771728515625,-1.015121459960938,1757647.164939,0.3097160458564758,-1.089726328849792,-0.4490244090557098,1757647.157188,127.9596099853516,113.842041015625,-488.7646484375,0
2023-02-13T13:26:21.682Z,42,1757647.203978,-0.2531890869140625,-0.438446044921875,-1.089752197265625,1757647.184959,0.4404402375221252,-1.019108176231384,-0.9475801587104797,1757647.17678,127.3294982910156,113.6024475097656,-488.8501586914062,0
2023-02-13T13:26:21.703Z,43,1757647.223998,-0.3845367431640625,-0.40850830078125,-1.11407470703125,1757647.204978,0.6240300536155701,-0.6807788014411926,-1.292086601257324,1757647.196342,126.4295959472656,113.1372833251953,-488.6963500976562,0
2023-02-13T13:26:21.722Z,44,1757647.243987,-0.2802734375,-0.328369140625,-1.106063842773438,1757647.224998,1.023970484733582,-0.7847765684127808,-1.383919358253479,1757647.215934,125.9605255126953,112.8153381347656,-489.052001953125,0
2023-02-13T13:26:21.750Z,45,1757647.264006,-0.344696044921875,-0.496307373046875,-1.061187744140625,1757647.244987,1.613597631454468,-1.373460054397583,-1.918512225151062,1757647.255088,124.2856292724609,110.5929412841797,-488.8082275390625,0
2023-02-13T13:26:21.762Z,46,1757647.284026,-0.456939697265625,-0.614776611328125,-1.030624389648438,1757647.265006,2.433473348617554,-2.125858545303345,-2.274218797683716,1757647.27465,122.6239929199219,108.0762023925781,-488.3515319824219,0
2023-02-13T13:26:21.794Z,47,1757647.304045,-0.5791778564453125,-0.5989837646484375,-1.05816650390625,1757647.285026,2.852615594863892,-2.418340682983398,-2.753708600997925,1757647.294212,121.0611267089844,105.8026733398438,-488.313232421875,0
2023-02-13T13:26:21.802Z,48,1757647.324034,-0.4537811279296875,-0.8424835205078125,-0.953948974609375,1757647.305045,2.626936912536621,-1.93768036365509,-3.15189790725708,1757647.313804,120.0515594482422,103.6029052734375,-487.2828369140625,0
2023-02-13T13:26:21.832Z,49,1757647.344054,-0.2672119140625,-1.05224609375,-0.9492645263671875,1757647.325034,2.667883634567261,-1.274702072143555,-3.407033443450928,1757647.333396,119.6673126220703,101.2337799072266,-486.7446594238281,0
2023-02-13T13:26:21.843Z,50,1757647.364073,-0.2693634033203125,-0.8441619873046875,-0.8950958251953125,1757647.365073,3.509634017944336,-1.100890278816223,-3.464348554611206,1757647.352958,119.273681640625,98.59870910644531,-485.6785278320312,0
2023-02-13T13:26:21.870Z,51,1757647.384062,-0.2025146484375,-0.8941497802734375,-0.756103515625,1757647.385062,3.828362464904785,-1.372209668159485,-3.804733514785767,1757647.37255,119.5438537597656,95.92437744140625,-485.0967102050781,0
2023-02-13T13:26:21.882Z,52,1757647.404082,-0.1097564697265625,-0.925506591796875,-0.70672607421875,1757647.385062,3.828362464904785,-1.372209668159485,-3.804733514785767,1757647.392143,119.9354095458984,92.48002624511719,-483.6276550292969,0
2023-02-13T13:26:21.904Z,53,1757647.424101,-0.03118896484375,-0.9435577392578125,-0.6308135986328125,1757647.405082,3.789905786514282,-1.756800293922424,-4.220213413238525,1757647.411704,120.1896057128906,89.7916259765625,-482.3680114746094,0
2023-02-13T13:26:21.922Z,54,1757647.444121,0.0391387939453125,-0.963714599609375,-0.51995849609375,1757647.425101,3.825068950653076,-1.899565696716309,-4.531720638275146,1757647.431297,121.1649475097656,86.71067810058594,-480.0672607421875,0
2023-02-13T13:26:21.953Z,55,1757647.46411,0.1885986328125,-1.001937866210938,-0.422454833984375,1757647.46511,3.902657032012939,-1.892223119735718,-4.299839019775391,1757647.450858,121.9452209472656,84.29718017578125,-478.2532653808594,0
2023-02-13T13:26:21.962Z,56,1757647.48413,0.3122406005859375,-1.042343139648438,-0.309051513671875,1757647.46511,3.902657032012939,-1.892223119735718,-4.299839019775391,1757647.470451,123.4335479736328,82.01066589355469,-476.2914123535156,0
2023-02-13T13:26:21.983Z,57,1757647.504149,0.4257354736328125,-1.035980224609375,-0.2435455322265625,1757647.48513,3.737111330032349,-2.136096954345703,-4.182225227355957,1757647.490043,124.5281524658203,80.27981567382812,-474.4570617675781,0
2023-02-13T13:26:22.003Z,58,1757647.524169,0.582916259765625,-1.04718017578125,-0.1749114990234375,1757647.505149,3.505362033843994,-1.972156047821045,-4.074044227600098,1757647.509635,125.8597106933594,78.90437316894531,-472.090087890625,0
2023-02-13T13:26:22.024Z,59,1757647.544158,0.7183685302734375,-1.044586181640625,-0.15460205078125,1757647.525169,2.844097375869751,-1.857146620750427,-3.75212550163269,1757647.529197,127.6298065185547,78.06231689453125,-470.4689331054688,0
2023-02-13T13:26:22.043Z,60,1757647.564177,0.799591064453125,-1.043411254882812,-0.1889495849609375,1757647.565177,1.545698404312134,-1.250782132148743,-2.923352003097534,1757647.548789,128.8126525878906,78.16473388671875,-469.7456359863281,0
2023-02-13T13:26:22.064Z,61,1757647.584197,0.9000091552734375,-1.073028564453125,-0.250518798828125,1757647.565177,1.545698404312134,-1.250782132148743,-2.923352003097534,1757647.568382,130.1025390625,78.25944519042969,-468.5533752441406,0
2023-02-13T13:26:22.082Z,62,1757647.604186,0.94189453125,-1.1041259765625,-0.187652587890625,1757647.585197,1.449434757232666,-0.7829320430755615,-2.377002239227295,1757647.587943,131.4462127685547,78.59402465820312,-467.8055725097656,0
2023-02-13T13:26:22.103Z,63,1757647.624205,0.89617919921875,-1.112274169921875,-0.152252197265625,1757647.605186,1.580159187316895,-0.8797861933708191,-1.843281865119934,1757647.607536,132.5460662841797,78.73947143554688,-466.8369750976562,0
2023-02-13T13:26:22.123Z,64,1757647.644225,0.8618011474609375,-1.093719482421875,-0.110748291015625,1757647.625205,1.423940539360046,-0.9022387862205505,-1.507139325141907,1757647.627128,133.7424468994141,78.79977416992188,-466.1827087402344,0
2023-02-13T13:26:22.145Z,65,1757647.664244,0.7865142822265625,-1.051544189453125,-0.01739501953125,1757647.645225,1.233582019805908,-0.9891523718833923,-1.380825281143188,1757647.64669,134.9314117431641,78.4466552734375,-465.5350036621094,0
2023-02-13T13:26:22.162Z,66,1757647.684233,0.68505859375,-0.9777069091796875,-0.0245513916015625,1757647.665244,1.146936416625977,-1.528743147850037,-1.472375750541687,1757647.666282,135.7517242431641,78.42274475097656,-465.3353271484375,0
2023-02-13T13:26:22.183Z,67,1757647.704253,0.6374664306640625,-0.8722076416015625,-0.1035614013671875,1757647.685233,0.9067760109901428,-1.602269053459167,-1.602374196052551,1757647.685844,136.7113952636719,78.16690063476562,-465.314453125,0
2023-02-13T13:26:22.203Z,68,1757647.724272,0.6706695556640625,-0.800323486328125,-0.144134521484375,1757647.705253,0.9702897071838379,-1.327059864997864,-1.431849360466003,1757647.705436,137.4612426757812,78.32148742675781,-465.082763671875,0
2023-02-13T13:26:22.232Z,69,1757647.744292,0.676300048828125,-0.7175445556640625,-0.12261962890625,1757647.725272,1.148005604743958,-1.305977940559387,-1.092146158218384,1757647.725028,137.9403686523438,78.47059631347656,-464.8302612304688,0
2023-02-13T13:26:22.243Z,70,1757647.764281,0.6184844970703125,-0.6543121337890625,-0.04974365234375,1757647.745292,1.24701189994812,-1.839476823806763,-0.823155403137207,1757647.74459,138.2537078857422,78.30278015136719,-464.4275817871094,0
2023-02-13T13:26:22.264Z,71,1757647.7843,0.5819549560546875,-0.67218017578125,-0.0359344482421875,1757647.765281,1.378431439399719,-2.356864452362061,-0.5870866775512695,1757647.764182,138.5281066894531,78.03923034667969,-464.3357543945312,0
2023-02-13T13:26:22.283Z,72,1757647.80432,0.473876953125,-0.652374267578125,-0.0407562255859375,1757647.7853,1.387555599212646,-2.519172191619873,-0.3962187170982361,1757647.783744,137.7948455810547,77.53485107421875,-464.2423706054688,0
2023-02-13T13:26:22.303Z,73,1757647.824309,0.4274749755859375,-0.5799102783203125,-0.044830322265625,1757647.80532,1.205641269683838,-1.972249507904053,-0.05107969418168068,1757647.803336,137.5211334228516,77.37181091308594,-464.082763671875,0
2023-02-13T13:26:22.323Z,74,1757647.844329,0.47088623046875,-0.48394775390625,0.0202484130859375,1757647.825309,0.8919627070426941,-1.260599613189697,0.3640511929988861,1757647.822898,136.9507446289062,77.11111450195312,-463.7789306640625,0
2023-02-13T13:26:22.344Z,75,1757647.864348,0.4797821044921875,-0.4421844482421875,0.063446044921875,1757647.845329,0.6544007062911987,-1.697700142860413,0.5562776327133179,1757647.84249,136.409423828125,76.96578979492188,-463.7664794921875,0
2023-02-13T13:26:22.363Z,76,1757647.8843635,0.3925933837890625,-0.4472198486328125,0.039825439453125,1757647.865348,0.4542596340179443,-2.507372856140137,0.5428717732429504,1757647.8620475,135.4167327880859,76.63014221191406,-463.8804931640625,0
2023-02-13T13:26:22.384Z,77,1757647.9043525,0.3631591796875,-0.3683624267578125,-0.0093536376953125,1757647.8853635,0.4142168760299683,-2.445302248001099,0.4345461130142212,1757647.8816395,134.2600402832031,76.38529968261719,-463.9915161132812,0
2023-02-13T13:26:22.403Z,78,1757647.9243715,0.23345947265625,-0.24481201171875,0.00311279296875,1757647.9053525,0.4515341520309448,-2.297801733016968,0.5542799830436707,1757647.9012015,133.3335723876953,76.3280029296875,-463.9511108398438,0
2023-02-13T13:26:22.432Z,79,1757647.9443915,0.1097259521484375,-0.2066650390625,-0.014495849609375,1757647.9253715,0.7560083270072937,-2.025304079055786,0.9754160046577454,1757647.9207945,131.9063568115234,75.63555908203125,-463.9736633300781,0
2023-02-13T13:26:22.444Z,80,1757647.9644105,0.074249267578125,-0.2437286376953125,-0.0431976318359375,1757647.9654105,0.3368688225746155,-1.683018207550049,1.190027952194214,1757647.9403555,130.8295288085938,75.21034240722656,-463.8537902832031,0
2023-02-13T13:26:22.469Z,81,1757647.9843995,0.0770111083984375,-0.26885986328125,-0.1197967529296875,1757647.9654105,0.3368688225746155,-1.683018207550049,1.190027952194214,1757647.9599485,129.5090026855469,74.90081787109375,-463.5686340332031,0
2023-02-13T13:26:22.483Z,82,1757648.0044195,0.0518798828125,-0.344940185546875,-0.20172119140625,1757647.9853995,-0.02175829187035561,-1.67933988571167,1.169976472854614,1757647.9795095,128.4101104736328,74.77821350097656,-463.45361328125,0
2023-02-13T13:26:22.504Z,83,1757648.0244385,0.05859375,-0.4521331787109375,-0.2871856689453125,1757648.0054195,-0.1359652876853943,-1.45973801612854,1.258846163749695,1757647.9991025,126.9586639404297,74.56936645507812,-463.5546875,0
2023-02-13T13:26:22.523Z,84,1757648.0444275,0.133026123046875,-0.57086181640625,-0.397369384765625,1757648.0254385,-0.2177701443433762,-0.9486802816390991,1.305120706558228,1757648.0186635,125.6929016113281,74.48648071289062,-463.6636352539062,0
2023-02-13T13:26:22.545Z,85,1757648.0644475,0.225433349609375,-0.6034698486328125,-0.4642181396484375,1757648.0454275,-0.3665902316570282,-0.2873390913009644,0.9825815558433533,1757648.0382565,124.5918731689453,74.65382385253906,-463.9097290039062,0
2023-02-13T13:26:22.563Z,86,1757648.0844665,0.2140045166015625,-0.61834716796875,-0.36041259765625,1757648.0654475,-0.3801023364067078,-0.07028161734342575,0.5018122792243958,1757648.0578175,123.6575012207031,74.57292175292969,-464.1713256835938,0
2023-02-13T13:26:22.584Z,87,1757648.1044865,0.317352294921875,-0.7042083740234375,-0.3444366455078125,1757648.0854665,0.1900753974914551,-0.04643913730978966,0.1854960918426514,1757648.0773795,123.5663146972656,74.39802551269531,-464.272216796875,0
2023-02-13T13:26:22.603Z,88,1757648.1244755,0.4311981201171875,-0.73638916015625,-0.3410797119140625,1757648.1054865,0.5048772692680359,-0.07485479861497879,-0.2181483060121536,1757648.0969415,123.5514373779297,74.19270324707031,-464.0319519042969,0
2023-02-13T13:26:22.630Z,89,1757648.1444945,0.42669677734375,-0.714599609375,-0.276275634765625,1757648.1254755,0.4348124563694,-0.2476468086242676,-0.5333701968193054,1757648.1165035,123.5667419433594,73.77255249023438,-463.8599853515625,0
2023-02-13T13:26:22.643Z,90,1757648.1645145,0.3603668212890625,-0.7020416259765625,-0.240936279296875,1757648.1454945,0.4572722017765045,-0.3317518532276154,-0.6570047736167908,1757648.1360955,124.1741790771484,74.00222778320312,-463.5780334472656,0
2023-02-13T13:26:22.673Z,91,1757648.1845345,0.4135894775390625,-0.711181640625,-0.24957275390625,1757648.1655145,0.3251692950725555,0.05602278932929039,-0.7325101494789124,1757648.1752495,125.1076202392578,73.99894714355469,-463.05908203125,0
2023-02-13T13:26:22.683Z,92,1757648.2045235,0.4629058837890625,-0.6806793212890625,-0.1877288818359375,1757648.1855345,0.05992378666996956,0.4144616425037384,-0.7959938049316406,1757648.1948115,125.7147827148438,74.12643432617188,-462.8138732910156,0
2023-02-13T13:26:22.713Z,93,1757648.2245425,0.4615478515625,-0.694671630859375,-0.1723785400390625,1757648.2055235,0.03421922400593758,0.310452401638031,-0.5927227139472961,1757648.2144035,126.0291595458984,74.18800354003906,-462.826171875,0
2023-02-13T13:26:22.723Z,94,1757648.2445625,0.4063568115234375,-0.7228851318359375,-0.16717529296875,1757648.2255425,0.06791007518768311,0.2110214233398438,-0.4400551319122314,1757648.2339955,126.4946441650391,74.32090759277344,-462.7974853515625,0
2023-02-13T13:26:22.753Z,95,1757648.2645515,0.386962890625,-0.7130279541015625,-0.1625823974609375,1757648.2455625,-0.1802800297737122,0.5510498285293579,-0.5108802914619446,1757648.2535575,127.0376739501953,74.4688720703125,-462.9434814453125,0
2023-02-13T13:26:22.763Z,96,1757648.2845705,0.3986358642578125,-0.6657867431640625,-0.133087158203125,1757648.2655515,-0.4878492951393127,0.7373297214508057,-0.5980732440948486,1757648.2731495,127.7365570068359,74.27076721191406,-463.3577575683594,0
2023-02-13T13:26:22.784Z,97,1757648.3045905,0.3667144775390625,-0.60467529296875,-0.12261962890625,1757648.2855705,-0.5980711579322815,0.6431882977485657,-0.6932794451713562,1757648.2927115,128.46728515625,74.40736389160156,-463.5513916015625,0
2023-02-13T13:26:22.803Z,98,1757648.3246095,0.4071807861328125,-0.594024658203125,-0.132049560546875,1757648.3055905,-0.3430438935756683,0.3858896493911743,-0.6636973023414612,1757648.3123045,129.1572418212891,74.71395874023438,-463.7955932617188,0
2023-02-13T13:26:22.830Z,99,1757648.3445985,0.521026611328125,-0.605010986328125,-0.1825714111328125,1757648.3455985,-0.02065973915159702,0.3578361570835114,-1.102738618850708,1757648.3318965,129.8794860839844,74.78927612304688,-463.7962951660156,0
2023-02-13T13:26:22.844Z,100,1757648.3646185,0.441375732421875,-0.5375213623046875,-0.1378631591796875,1757648.3656185,0.1069853082299232,0.1621087491512299,-1.00882887840271,1757648.3514585,130.7651214599609,74.85427856445312,-463.7908630371094,0
2023-02-13T13:26:22.864Z,101,1757648.3846375,0.3695220947265625,-0.528076171875,-0.1080169677734375,1757648.3656185,0.1069853082299232,0.1621087491512299,-1.00882887840271,1757648.3710505,131.6231079101562,74.76950073242188,-463.5990600585938,0
2023-02-13T13:26:22.883Z,102,1757648.4046575,0.368621826171875,-0.5137176513671875,-0.102264404296875,1757648.3856375,0.1918168365955353,0.2746105194091797,-0.9910666346549988,1757648.3906125,132.3663177490234,74.94429016113281,-463.4019165039062,0
2023-02-13T13:26:22.904Z,103,1757648.4246465,0.4205780029296875,-0.514495849609375,-0.07659912109375,1757648.4056575,0.1341397017240524,0.4379424452781677,-1.04123318195343,1757648.4102045,133.1396636962891,75.26271057128906,-463.4483032226562,0
2023-02-13T13:26:22.923Z,104,1757648.4446655,0.4529571533203125,-0.5088043212890625,-0.0856475830078125,1757648.4256465,0.02947400324046612,0.4777436554431915,-1.062577605247498,1757648.4297665,134.3897857666016,75.43376159667969,-463.1910400390625,0
2023-02-13T13:26:22.949Z,105,1757648.4646855,0.472412109375,-0.48828125,-0.06463623046875,1757648.4456655,-0.03367647156119347,0.6140599846839905,-0.9677911400794983,1757648.4493585,134.9360809326172,75.57696533203125,-462.9804077148438,0
2023-02-13T13:26:22.963Z,106,1757648.4846745,0.5667266845703125,-0.480987548828125,-0.0394134521484375,1757648.4656855,-0.06369429081678391,0.8020229339599609,-0.7571380138397217,1757648.4689205,135.7052307128906,75.71304321289062,-462.8591918945312,0
2023-02-13T13:26:22.984Z,107,1757648.5046935,0.5946197509765625,-0.507781982421875,-0.0694732666015625,1757648.4856745,-0.2600326538085938,0.966981828212738,-0.6181015968322754,1757648.4884825,136.4010467529297,75.92642211914062,-462.76025390625,0
2023-02-13T13:26:23.003Z,108,1757648.5247135,0.5833587646484375,-0.51104736328125,-0.0361785888671875,1757648.5056935,-0.5207998156547546,0.9918733239173889,-0.581750214099884,1757648.5080435,137.3335571289062,76.44058227539062,-462.9661865234375,0
2023-02-13T13:26:23.024Z,109,1757648.5447325,0.615081787109375,-0.5109710693359375,-0.10302734375,1757648.5257135,-0.5887367725372314,1.150395035743713,-0.5148207545280457,1757648.5276365,137.9981842041016,76.74537658691406,-462.9403076171875,0
2023-02-13T13:26:23.043Z,110,1757648.5647215,0.7030792236328125,-0.4765472412109375,-0.1335601806640625,1757648.5457325,-0.5733809471130371,1.230226516723633,-0.5232216715812683,1757648.5471975,138.4846649169922,77.084228515625,-462.9518737792969,0
2023-02-13T13:26:23.069Z,111,1757648.5847415,0.68621826171875,-0.4786529541015625,-0.1298675537109375,1757648.5657215,-0.4297625720500946,0.9682063460350037,-0.6944927573204041,1757648.5667905,139.2451782226562,77.15965270996094,-462.9478149414062,0
2023-02-13T13:26:23.083Z,112,1757648.6047615,0.7618865966796875,-0.5248870849609375,-0.103424072265625,1757648.5857415,-0.1928394883871078,0.6294165253639221,-0.7412583827972412,1757648.5863515,139.7429809570312,77.29653930664062,-462.685546875,0
2023-02-13T13:26:23.104Z,113,1757648.6247805,0.760528564453125,-0.5359954833984375,-0.166778564453125,1757648.6057615,-0.09541600197553635,0.3601680397987366,-0.8023630380630493,1757648.6059445,140.7529754638672,77.784912109375,-462.5820922851562,0
2023-02-13T13:26:23.123Z,114,1757648.6447695,0.79949951171875,-0.543304443359375,-0.219146728515625,1757648.6257805,-0.3382121324539185,0.3578502833843231,-0.609321117401123,1757648.6255365,141.2033996582031,78.24728393554688,-462.4934692382812,0
2023-02-13T13:26:23.145Z,115,1757648.6647895,0.861175537109375,-0.5126953125,-0.152374267578125,1757648.6457695,-0.482671320438385,0.6270090341567993,-0.5248616337776184,1757648.6450985,141.4173278808594,78.47395324707031,-462.4082641601562,0
2023-02-13T13:26:23.163Z,116,1757648.6848085,0.9188079833984375,-0.5686187744140625,-0.07171630859375,1757648.6657895,-0.2177762687206268,0.8247972130775452,-0.4095696806907654,1757648.6646905,141.8881225585938,78.74394226074219,-462.263916015625,0
2023-02-13T13:26:23.193Z,117,1757648.7048285,0.915618896484375,-0.6409759521484375,-0.187713623046875,1757648.7058285,-0.6456580758094788,0.5042802095413208,0.1622903794050217,1757648.6842525,142.1254425048828,79.01927185058594,-462.0128479003906,0
2023-02-13T13:26:23.203Z,118,1757648.7248175,0.81683349609375,-0.69097900390625,-0.2888336181640625,1757648.7058285,-0.6456580758094788,0.5042802095413208,0.1622903794050217,1757648.7038445,141.6609954833984,79.09645080566406,-461.9298095703125,0
2023-02-13T13:26:23.229Z,119,1757648.7448365,0.985931396484375,-0.6451873779296875,-0.194915771484375,1757648.7258175,-0.7761524319648743,1.090717315673828,0.2890014350414276,1757648.7234365,141.6584167480469,79.30523681640625,-461.9517822265625,0
2023-02-13T13:26:23.243Z,120,1757648.7648565,1.059585571289062,-0.6457061767578125,-0.0617523193359375,1757648.7458365,-0.3323537111282349,0.9600221514701843,0.2569958567619324,1757648.7430295,141.3917541503906,79.07040405273438,-461.7213134765625,0
2023-02-13T13:26:23.264Z,121,1757648.7848455,0.9591827392578125,-0.7377777099609375,-0.083160400390625,1757648.7658565,0.01240500435233116,0.2653485834598541,0.4743095338344574,1757648.7625905,141.3805236816406,78.80601501464844,-461.2769470214844,0
2023-02-13T13:26:23.283Z,122,1757648.8048645,0.8498077392578125,-0.7799530029296875,-0.189727783203125,1757648.7858455,-0.3315017819404602,0.2782987356185913,0.3959310948848724,1757648.7821835,140.5667572021484,78.57708740234375,-461.2227172851562,0
2023-02-13T13:26:23.304Z,123,1757648.8248845,0.85205078125,-0.71807861328125,-0.1737518310546875,1757648.8058645,-0.8686128854751587,0.7879965901374817,0.3406220376491547,1757648.8017755,139.8738098144531,78.65933227539062,-461.121826171875,0
2023-02-13T13:26:23.323Z,124,1757648.8449035,0.8575592041015625,-0.6922149658203125,-0.1291961669921875,1757648.8258845,-0.8506735563278198,0.8105179071426392,0.4785135984420776,1757648.8213675,139.3232269287109,78.23269653320312,-460.9907836914062,0
2023-02-13T13:26:23.344Z,125,1757648.8648925,0.810150146484375,-0.7129669189453125,-0.1236724853515625,1757648.8459035,-0.3233274519443512,0.5373169779777527,0.6218763589859009,1757648.8409295,138.486083984375,77.92221069335938,-461.1506958007812,0
2023-02-13T13:26:23.363Z,126,1757648.884889375,0.6912994384765625,-0.778167724609375,-0.1461639404296875,1757648.8658925,-0.02865534648299217,0.3110921084880829,0.6304900646209717,1757648.8605215,137.8713073730469,77.20443725585938,-460.8909912109375,0
2023-02-13T13:26:23.392Z,127,1757648.904908375,0.6660003662109375,-0.747100830078125,-0.1139373779296875,1757648.885889375,-0.4340419769287109,0.6718707680702209,0.4483117461204529,1757648.880060375,137.1900634765625,76.44374084472656,-460.70458984375,0
2023-02-13T13:26:23.403Z,128,1757648.924928375,0.7122344970703125,-0.767486572265625,-0.0020294189453125,1757648.905908375,-0.6086036562919617,0.7903556227684021,0.4336569011211395,1757648.899622375,136.4176483154297,75.49105834960938,-460.526611328125,0
2023-02-13T13:26:23.429Z,129,1757648.944917375,0.7625732421875,-0.8711090087890625,-0.0362091064453125,1757648.925928375,-0.1353021711111069,0.4229520559310913,0.5662325024604797,1757648.919184375,135.9335327148438,74.43840026855469,-460.6140441894531,0
2023-02-13T13:26:23.444Z,130,1757648.964937375,0.7791900634765625,-0.920196533203125,-0.0908660888671875,1757648.965937375,-0.6612138748168945,0.6672369241714478,-0.169386625289917,1757648.938776375,135.2669067382812,73.426513671875,-460.2494506835938,0
2023-02-13T13:26:23.464Z,131,1757648.984956375,0.836334228515625,-0.819976806640625,-0.14306640625,1757648.965937375,-0.6612138748168945,0.6672369241714478,-0.169386625289917,1757648.958338375,135.1094665527344,71.73069763183594,-460.4049072265625,0
2023-02-13T13:26:23.483Z,132,1757649.004945375,0.9503173828125,-0.7633514404296875,-0.101959228515625,1757648.985956375,-1.022973656654358,0.6869578957557678,-0.02104323357343674,1757648.977899375,135.5195770263672,70.47782897949219,-460.7475891113281,0
2023-02-13T13:26:23.504Z,133,1757649.024965375,1.032150268554688,-0.77557373046875,0.0272674560546875,1757649.005945375,-0.7397728562355042,0.5908665060997009,0.1984033733606339,1757648.997492375,135.9615020751953,69.22393798828125,-461.2029724121094,0
2023-02-13T13:26:23.523Z,134,1757649.044984375,1.120880126953125,-0.815399169921875,0.077117919921875,1757649.025965375,-0.348664790391922,0.406878799200058,-0.05948995798826218,1757649.017053375,136.6366119384766,67.77651977539062,-461.5131225585938,0
2023-02-13T13:26:23.544Z,135,1757649.065004375,1.07415771484375,-0.792510986328125,-0.03179931640625,1757649.045984375,-0.6381580829620361,0.4344185590744019,-0.6916306614875793,1757649.036615375,137.9758453369141,66.88217163085938,-461.712158203125,0
2023-02-13T13:26:23.563Z,136,1757649.084993375,1.075531005859375,-0.7350921630859375,-0.072296142578125,1757649.066004375,-1.170085906982422,0.6764605045318604,-0.8019534349441528,1757649.075769375,141.9337158203125,66.2650146484375,-463.5181274414062,0
2023-02-13T13:26:23.590Z,137,1757649.105012375,1.285964965820312,-0.7027435302734375,-0.0188140869140625,1757649.085993375,-1.162115573883057,1.049134492874146,-0.2722560167312622,1757649.095362375,143.3622283935547,66.73323059082031,-463.9266357421875,0
2023-02-13T13:26:23.603Z,138,1757649.125032375,1.413406372070312,-0.71685791015625,0.030426025390625,1757649.106012375,-0.3389948308467865,0.8905155062675476,0.1065522730350494,1757649.114923375,143.8294067382812,66.55494689941406,-464.1690063476562,0
2023-02-13T13:26:23.633Z,139,1757649.145051375,1.375518798828125,-0.73126220703125,0.0926513671875,1757649.126032375,0.2625599801540375,0.3849655389785767,0.06501388549804688,1757649.134516375,144.1173706054688,66.37687683105469,-463.6385498046875,0
2023-02-13T13:26:23.643Z,140,1757649.165040375,1.275924682617188,-0.7638702392578125,0.066131591796875,1757649.146051375,0.3639265596866608,0.03647784888744354,0.003360643051564693,1757649.154108375,143.9727478027344,66.11192321777344,-463.1270141601562,0
2023-02-13T13:26:23.674Z,141,1757649.185060375,1.261520385742188,-0.8122100830078125,0.0241851806640625,1757649.166040375,0.2143197506666183,-0.2217110842466354,0.03596332669258118,1757649.173670375,143.8512573242188,66.07389831542969,-463.23828125,0
2023-02-13T13:26:23.683Z,142,1757649.205079375,1.258010864257812,-0.8773956298828125,0.0278167724609375,1757649.186060375,0.1165737509727478,0.01873613707721233,0.1869323402643204,1757649.193262375,142.4340972900391,66.09098815917969,-463.4327392578125,0
2023-02-13T13:26:23.704Z,143,1757649.225068375,1.195587158203125,-0.9713134765625,0.0565032958984375,1757649.206079375,0.3054384887218475,0.04436826333403587,0.3944839239120483,1757649.212824375,141.1432495117188,66.2452392578125,-463.2330017089844,0
2023-02-13T13:26:23.723Z,144,1757649.245088375,1.100296020507812,-1.026580810546875,0.055755615234375,1757649.226068375,0.5580699443817139,-0.1444176286458969,0.3943364024162292,1757649.232386375,139.5666351318359,66.50637817382812,-463.0197143554688,0
2023-02-13T13:26:23.750Z,145,1757649.265107375,1.075057983398438,-1.022964477539062,0.04449462890625,1757649.246088375,0.3940029740333557,0.056696567684412,0.02080301567912102,1757649.251978375,137.8093872070312,66.8326416015625,-463.0274658203125,0
2023-02-13T13:26:23.763Z,146,1757649.285127375,1.194839477539062,-0.983856201171875,0.0291900634765625,1757649.266107375,0.1208800822496414,0.1426871120929718,-0.3837471306324005,1757649.271540375,136.8772888183594,67.63294982910156,-463.421875,0
2023-02-13T13:26:23.784Z,147,1757649.305116375,1.218154907226562,-0.9342498779296875,-0.0358734130859375,1757649.286127375,0.2032053172588348,-0.4513064622879028,-0.6485303044319153,1757649.291132375,135.8792724609375,69.01068115234375,-463.707275390625,0
2023-02-13T13:26:23.803Z,148,1757649.325136375,1.166015625,-0.9047393798828125,-0.1537322998046875,1757649.306116375,0.4710138440132141,-0.7401334643363953,-0.8317965269088745,1757649.310694375,135.2418670654297,70.669921875,-463.5377807617188,0
2023-02-13T13:26:23.823Z,149,1757649.345155375,1.101806640625,-0.85382080078125,-0.181640625,1757649.326136375,0.6692534685134888,-0.7221654057502747,-0.7713212370872498,1757649.330286375,135.3516235351562,73.28292846679688,-463.2367553710938,0
2023-02-13T13:26:23.844Z,150,1757649.365175375,1.088714599609375,-0.8215789794921875,-0.147369384765625,1757649.346155375,0.8946535587310791,-0.54066401720047,-0.6011409759521484,1757649.349848375,136.1038208007812,75.56927490234375,-462.4869995117188,0
2023-02-13T13:26:23.873Z,151,1757649.385164375,1.046554565429688,-0.783538818359375,-0.1350555419921875,1757649.386164375,0.6554161906242371,-0.4273047149181366,-0.5954830646514893,1757649.369440375,137.6870269775391,77.56300354003906,-461.6020202636719,0
2023-02-13T13:26:23.883Z,152,1757649.405183375,1.07220458984375,-0.7330322265625,-0.125030517578125,1757649.386164375,0.6554161906242371,-0.4273047149181366,-0.5954830646514893,1757649.389002375,139.2540435791016,79.07400512695312,-461.1781616210938,0
2023-02-13T13:26:23.910Z,153,1757649.425203375,1.04754638671875,-0.6665191650390625,-0.1113433837890625,1757649.406183375,0.6635524034500122,-0.760553777217865,-0.5628036856651306,1757649.408594375,140.7795104980469,79.83273315429688,-461.0047912597656,0
2023-02-13T13:26:23.923Z,154,1757649.445192375,0.9976043701171875,-0.6370391845703125,-0.1455078125,1757649.426203375,1.04444944858551,-0.9423952102661133,-0.4195557236671448,1757649.428156375,142.1118774414062,80.36518859863281,-461.01708984375,0
2023-02-13T13:26:23.952Z,155,1757649.465211375,0.9295196533203125,-0.625701904296875,-0.1273040771484375,1757649.446192375,1.21315586566925,-0.7990679144859314,-0.04474803060293198,1757649.447748375,142.7877807617188,80.19410705566406,-460.6197509765625,0
2023-02-13T13:26:23.963Z,156,1757649.485231375,0.82354736328125,-0.6031646728515625,-0.07867431640625,1757649.466211375,1.043002843856812,-0.5505614280700684,0.3500384390354156,1757649.467310375,143.0684661865234,80.12681579589844,-460.6223754882812,0
2023-02-13T13:26:23.984Z,157,1757649.505250375,0.759674072265625,-0.5952301025390625,-0.0519561767578125,1757649.486231375,0.7536093592643738,-0.4537368714809418,0.7054692506790161,1757649.486872375,143.3549652099609,79.96031188964844,-460.658447265625,0
2023-02-13T13:26:24.003Z,158,1757649.525239375,0.69903564453125,-0.5655364990234375,-0.0045166015625,1757649.506250375,0.5215015411376953,-0.4540223479270935,0.8445056676864624,1757649.506464375,143.1040191650391,79.48603820800781,-460.46728515625,0
2023-02-13T13:26:24.030Z,159,1757649.545259375,0.63372802734375,-0.5144500732421875,0.0167083740234375,1757649.526239375,0.4941388964653015,-0.4024496972560883,0.8321800231933594,1757649.526026375,142.7376708984375,78.99443054199219,-460.48291015625,0
2023-02-13T13:26:24.044Z,160,1757649.565278375,0.61785888671875,-0.506500244140625,0.0182952880859375,1757649.546259375,0.6007761359214783,-0.6752098798751831,0.9094759225845337,1757649.545587375,142.1977844238281,78.54826354980469,-460.5258483886719,0
2023-02-13T13:26:24.064Z,161,1757649.585298375,0.60296630859375,-0.5060577392578125,0.0358123779296875,1757649.566278375,0.8114521503448486,-1.090537071228027,0.9317431449890137,1757649.565149375,141.5752410888672,77.87239074707031,-460.3511352539062,0
2023-02-13T13:26:24.084Z,162,1757649.605287375,0.5919342041015625,-0.5322723388671875,0.01141357421875,1757649.586298375,0.9519527554512024,-1.373994827270508,0.9392431378364563,1757649.584741375,140.8679656982422,77.09967041015625,-460.2626647949219,0
2023-02-13T13:26:24.114Z,163,1757649.625306375,0.5537872314453125,-0.515045166015625,0.020904541015625,1757649.606287375,0.8306372761726379,-1.456782102584839,0.8252124190330505,1757649.604334375,140.0014801025391,76.73258972167969,-460.1984252929688,0
2023-02-13T13:26:24.124Z,164,1757649.645326375,0.542266845703125,-0.4835662841796875,0.0350494384765625,1757649.626306375,0.5703399181365967,-1.408295512199402,0.7025999426841736,1757649.623926375,139.0297546386719,76.3265380859375,-459.9609985351562,0
2023-02-13T13:26:24.144Z,165,1757649.665315375,0.5231781005859375,-0.4622802734375,0.0382080078125,1757649.646326375,0.5959102511405945,-1.588258147239685,0.677459180355072,1757649.643488375,138.1940765380859,76.01338195800781,-460.091552734375,0
2023-02-13T13:26:24.164Z,166,1757649.685334375,0.5152740478515625,-0.4708251953125,-0.0250244140625,1757649.666315375,0.7440928220748901,-1.674341320991516,0.7158790230751038,1757649.663080375,137.4947967529297,75.71693420410156,-459.9222412109375,0
2023-02-13T13:26:24.189Z,167,1757649.705354375,0.472869873046875,-0.4591522216796875,-0.0364532470703125,1757649.686334375,0.7507554888725281,-1.572860479354858,0.7682540416717529,1757649.682642375,136.462646484375,75.30804443359375,-459.9772338867188,0
2023-02-13T13:26:24.204Z,168,1757649.725374375,0.394775390625,-0.4472503662109375,-0.0438385009765625,1757649.706354375,0.6708545088768005,-1.335238099098206,0.8361459970474243,1757649.702204375,135.9433441162109,75.0894775390625,-459.5312194824219,0
2023-02-13T13:26:24.224Z,169,1757649.745363375,0.412506103515625,-0.480255126953125,-0.0317535400390625,1757649.726374375,0.5782982110977173,-0.9237096905708313,0.8877722024917603,1757649.721796375,134.8569030761719,74.64720153808594,-459.460205078125,0
2023-02-13T13:26:24.244Z,170,1757649.765382375,0.4487457275390625,-0.4697265625,-0.0038299560546875,1757649.766382375,0.06148599833250046,-0.9345572590827942,1.204735517501831,1757649.741388375,133.8962249755859,74.45269775390625,-459.0665283203125,0
2023-02-13T13:26:24.264Z,171,1757649.785402375,0.429779052734375,-0.4671173095703125,-0.012481689453125,1757649.766382375,0.06148599833250046,-0.9345572590827942,1.204735517501831,1757649.760950375,133.0365142822266,74.01762390136719,-459.48828125,0
2023-02-13T13:26:24.284Z,172,1757649.805421375,0.395599365234375,-0.474365234375,-0.0465850830078125,1757649.786402375,0.08347119390964508,-1.173889994621277,1.431320667266846,1757649.780542375,131.8137359619141,73.89750671386719,-459.200439453125,0
2023-02-13T13:26:24.310Z,173,1757649.825410375,0.482879638671875,-0.5402679443359375,-0.10888671875,1757649.806421375,0.04802132025361061,-0.8288002014160156,1.355717778205872,1757649.800104375,130.4362945556641,73.58340454101562,-459.3474426269531,0
2023-02-13T13:26:24.324Z,174,1757649.845430375,0.3742828369140625,-0.4790496826171875,-0.1136016845703125,1757649.826410375,-0.1871001124382019,-0.2471029907464981,0.9880508780479431,1757649.819696375,129.4866638183594,73.57635498046875,-459.5238647460938,0
2023-02-13T13:26:24.353Z,175,1757649.865449375,0.2873992919921875,-0.4563446044921875,-0.0506591796875,1757649.846430375,-0.1904362589120865,-0.1982749998569489,0.9305979609489441,1757649.839258375,128.6233520507812,73.50422668457031,-459.7765808105469,0
2023-02-13T13:26:24.364Z,176,1757649.885464167,0.2776947021484375,-0.5272369384765625,-0.100921630859375,1757649.866449375,0.1810821741819382,-0.5053595900535583,1.221771240234375,1757649.858850375,127.8815307617188,73.59573364257812,-459.9132385253906,0
2023-02-13T13:26:24.384Z,177,1757649.905453167,0.238555908203125,-0.6352996826171875,-0.19036865234375,1757649.886464167,0.4187533259391785,-1.174033999443054,1.660047888755798,1757649.878438167,126.7176208496094,73.08570861816406,-459.7780151367188,0
2023-02-13T13:26:24.404Z,178,1757649.925472167,0.0855865478515625,-0.7679595947265625,-0.2318878173828125,1757649.906453167,0.3418806493282318,-1.527792930603027,1.804248452186584,1757649.897999167,125.2295837402344,72.93696594238281,-459.2666320800781,0
2023-02-13T13:26:24.432Z,179,1757649.945492167,-0.0027923583984375,-0.872833251953125,-0.27276611328125,1757649.926472167,0.05159741267561913,-1.053941249847412,1.49491012096405,1757649.917592167,123.4706726074219,72.53742980957031,-458.9155883789062,0
2023-02-13T13:26:24.444Z,180,1757649.965481167,0.04376220703125,-0.8858184814453125,-0.3058929443359375,1757649.946492167,-0.4281681180000305,0.03751568496227264,0.6767981648445129,1757649.937153167,122.23388671875,72.80764770507812,-458.8964538574219,0
2023-02-13T13:26:24.469Z,181,1757649.985500167,0.1983489990234375,-0.8234405517578125,-0.2318878173828125,1757649.966481167,-0.593708872795105,0.8564372062683105,-0.08411381393671036,1757649.976308167,122.1062164306641,73.029541015625,-459.7630920410156,0
2023-02-13T13:26:24.484Z,182,1757650.005520167,0.36749267578125,-0.758331298828125,-0.1554107666015625,1757649.986500167,-0.184756264090538,0.9318981170654297,-0.5746169686317444,1757649.995869167,122.8969573974609,73.45216369628906,-459.7560424804688,0
2023-02-13T13:26:24.514Z,183,1757650.025539167,0.5164947509765625,-0.7008819580078125,-0.0977325439453125,1757650.006520167,0.3383290469646454,0.2928957939147949,-0.9428117275238037,1757650.015462167,123.3832702636719,73.04310607910156,-459.6683349609375,0
2023-02-13T13:26:24.524Z,184,1757650.045528167,0.5099029541015625,-0.710540771484375,-0.079010009765625,1757650.026539167,0.6487399339675903,-0.3248832821846008,-1.321419239044189,1757650.035023167,124.6966705322266,73.02937316894531,-459.0422668457031,0
2023-02-13T13:26:24.545Z,185,1757650.065548167,0.3983154296875,-0.7493743896484375,-0.0530853271484375,1757650.046528167,0.730294406414032,-0.5320684313774109,-1.293176651000977,1757650.054616167,125.5051422119141,72.64152526855469,-458.4795532226562,0
2023-02-13T13:26:24.564Z,186,1757650.085568167,0.2941436767578125,-0.774078369140625,0.003570556640625,1757650.066548167,0.6373117566108704,-0.3628122806549072,-0.9917036294937134,1757650.074177167,126.3701324462891,72.88334655761719,-458.1343383789062,0
2023-02-13T13:26:24.585Z,187,1757650.105587167,0.2678680419921875,-0.782867431640625,0.0407867431640625,1757650.086568167,0.2687523663043976,0.03635667636990547,-0.7252160310745239,1757650.093770167,126.8346405029297,73.32337951660156,-458.0358276367188,0
2023-02-13T13:26:24.604Z,188,1757650.125576167,0.402679443359375,-0.7486572265625,0.032196044921875,1757650.106587167,-0.2419484555721283,0.4851243495941162,-0.8089485168457031,1757650.113331167,127.5934600830078,73.54989624023438,-458.15576171875,0
2023-02-13T13:26:24.626Z,189,1757650.145596167,0.4539642333984375,-0.6418914794921875,0.04339599609375,1757650.126576167,-0.7097995281219482,0.5777655839920044,-1.196104764938354,1757650.132893167,128.656982421875,73.63868713378906,-458.6565551757812,0
2023-02-13T13:26:24.644Z,190,1757650.165615167,0.4243927001953125,-0.6060333251953125,0.0416107177734375,1757650.146596167,-0.7263278961181641,0.3976565599441528,-1.409336566925049,1757650.152485167,129.6689605712891,74.0340576171875,-459.0074462890625,0
2023-02-13T13:26:24.666Z,191,1757650.185604167,0.403411865234375,-0.5971527099609375,-0.01708984375,1757650.166615167,-0.3104420304298401,0.01817154698073864,-1.299003720283508,1757650.172047167,130.4979858398438,73.96823120117188,-459.5560913085938,0
2023-02-13T13:26:24.684Z,192,1757650.205624167,0.3265380859375,-0.6266021728515625,-0.0994415283203125,1757650.186604167,-0.1733907014131546,-0.1390598863363266,-1.24971067905426,1757650.191609167,131.5917510986328,73.92752075195312,-459.5872802734375,0
2023-02-13T13:26:24.707Z,193,1757650.225643167,0.3524322509765625,-0.5746917724609375,-0.0906982421875,1757650.206624167,-0.408145934343338,0.3356581628322601,-1.342353343963623,1757650.211201167,132.6602020263672,74.12251281738281,-459.6714477539062,0
2023-02-13T13:26:24.724Z,194,1757650.245663167,0.4531097412109375,-0.5279693603515625,-0.0660247802734375,1757650.226643167,-0.571073055267334,0.7064530253410339,-1.318957686424255,1757650.230763167,133.9499359130859,74.33392333984375,-459.9990844726562,0
2023-02-13T13:26:24.747Z,195,1757650.265652167,0.602142333984375,-0.5352630615234375,-0.0976104736328125,1757650.246663167,-0.5189707279205322,0.7538657784461975,-1.253127813339233,1757650.250325167,135.0258026123047,74.83029174804688,-460.2093505859375,0
2023-02-13T13:26:24.764Z,196,1757650.285671167,0.7635498046875,-0.48779296875,-0.1280364990234375,1757650.266652167,-0.5215801000595093,0.5996628999710083,-1.301283359527588,1757650.269917167,136.0862884521484,75.24473571777344,-460.502197265625,0
2023-02-13T13:26:24.789Z,197,1757650.305691167,0.771484375,-0.397491455078125,-0.0943450927734375,1757650.286671167,-0.3008764684200287,0.2471469342708588,-1.280761003494263,1757650.289479167,137.0053405761719,75.59974670410156,-460.7329711914062,0
2023-02-13T13:26:24.804Z,198,1757650.325710167,0.703338623046875,-0.3875885009765625,-0.080780029296875,1757650.326710167,0.0004495415778364986,-0.1168935969471931,-0.7338827848434448,1757650.309041167,137.8751220703125,75.99505615234375,-460.5293273925781,0
2023-02-13T13:26:24.829Z,199,1757650.345699167,0.605926513671875,-0.49749755859375,-0.1097869873046875,1757650.326710167,0.0004495415778364986,-0.1168935969471931,-0.7338827848434448,1757650.328602167,138.6695861816406,76.21110534667969,-460.5921020507812,0
2023-02-13T13:26:24.844Z,200,1757650.365719167,0.718353271484375,-0.537811279296875,-0.24005126953125,1757650.346699167,-0.5337350368499756,0.601996898651123,-0.5660706162452698,1757650.348195167,139.1941223144531,76.81996154785156,-460.7986755371094,0
2023-02-13T13:26:24.872Z,201,1757650.385738167,0.7823944091796875,-0.390838623046875,-0.151519775390625,1757650.366719167,-1.112443923950195,1.432530879974365,-0.7623738050460815,1757650.367756167,139.5494232177734,77.20185852050781,-460.8320007324219,0
2023-02-13T13:26:24.884Z,202,1757650.405727167,0.963470458984375,-0.3528900146484375,-0.0954742431640625,1757650.386738167,-0.8730305433273315,1.528408408164978,-0.74605393409729,1757650.387318167,140.6299743652344,78.02371215820312,-461.0247192382812,0
2023-02-13T13:26:24.904Z,203,1757650.425747167,0.908599853515625,-0.4465179443359375,-0.16595458984375,1757650.406727167,-0.478187620639801,0.4707017242908478,-0.5001272559165955,1757650.406880167,141.006103515625,78.19117736816406,-461.2314453125,0
2023-02-13T13:26:24.924Z,204,1757650.445766167,0.7625274658203125,-0.5393524169921875,-0.2794189453125,1757650.426747167,-0.1946264803409576,-0.08823585510253906,-0.2205965518951416,1757650.426442167,141.2879638671875,77.89736938476562,-461.4356994628906,0
2023-02-13T13:26:24.944Z,205,1757650.465786167,0.7652435302734375,-0.5558013916015625,-0.2891387939453125,1757650.446766167,-0.2219563722610474,0.3827742636203766,-0.2396852970123291,1757650.446034167,141.5439758300781,77.89961242675781,-461.2222290039062,0
2023-02-13T13:26:24.964Z,206,1757650.485775167,0.8483123779296875,-0.531097412109375,-0.207672119140625,1757650.466786167,-0.5674043297767639,0.9050998091697693,-0.4262120425701141,1757650.465596167,141.8048553466797,78.24403381347656,-461.1511840820312,0
2023-02-13T13:26:24.986Z,207,1757650.505795167,0.8696136474609375,-0.54583740234375,-0.16168212890625,1757650.486775167,-0.5500863194465637,0.707196056842804,-0.353110134601593,1757650.485158167,142.1821746826172,78.69349670410156,-461.5588989257812,0
2023-02-13T13:26:25.004Z,208,1757650.525814167,0.7302398681640625,-0.5966339111328125,-0.2144927978515625,1757650.506795167,-0.2778169810771942,0.1523096412420273,-0.2419638931751251,1757650.504719167,142.2525939941406,78.87783813476562,-461.13427734375,0
2023-02-13T13:26:25.033Z,209,1757650.545834167,0.7446746826171875,-0.6197052001953125,-0.206878662109375,1757650.526814167,-0.204987496137619,0.3346394896507263,-0.2325821071863174,1757650.524312167,142.2487182617188,79.30543518066406,-461.01611328125,0
2023-02-13T13:26:25.045Z,210,1757650.565823167,0.8131256103515625,-0.6893768310546875,-0.1678619384765625,1757650.566823167,-0.4996377825737,0.6591842770576477,-0.2823542058467865,1757650.543873167,142.412353515625,79.43437194824219,-460.87890625,0
2023-02-13T13:26:25.074Z,211,1757650.585842167,0.8821563720703125,-0.7210235595703125,-0.2067108154296875,1757650.566823167,-0.4996377825737,0.6591842770576477,-0.2823542058467865,1757650.563435167,142.2652282714844,79.70903015136719,-460.829345703125,0
2023-02-13T13:26:25.084Z,212,1757650.605862167,0.8694915771484375,-0.63385009765625,-0.21502685546875,1757650.606862167,-0.4743883609771729,0.7468720674514771,0.1455422788858414,1757650.583027167,142.3432006835938,79.95693969726562,-460.8321533203125,0
2023-02-13T13:26:25.112Z,213,1757650.625851167,0.895782470703125,-0.56719970703125,-0.17254638671875,1757650.606862167,-0.4743883609771729,0.7468720674514771,0.1455422788858414,1757650.602620167,142.0409393310547,80.41122436523438,-460.7148742675781,0
2023-02-13T13:26:25.124Z,214,1757650.645870167,0.89886474609375,-0.643218994140625,-0.129302978515625,1757650.626851167,-0.1644219607114792,0.636975109577179,0.2715417742729187,1757650.622182167,141.5112915039062,79.94956970214844,-460.4635009765625,0
2023-02-13T13:26:25.150Z,215,1757650.665890167,0.8635101318359375,-0.727294921875,-0.2177734375,1757650.646870167,-0.1220582649111748,0.6079370975494385,0.3523828089237213,1757650.641743167,140.7208404541016,79.95655822753906,-460.1394958496094,0
2023-02-13T13:26:25.164Z,216,1757650.685909167,0.839385986328125,-0.69403076171875,-0.1995697021484375,1757650.666890167,-0.5810532569885254,1.103080034255981,0.2619104385375977,1757650.661305167,139.8478393554688,79.87007141113281,-460.0435180664062,0
2023-02-13T13:26:25.184Z,217,1757650.705898167,0.8799285888671875,-0.58258056640625,-0.0935211181640625,1757650.686909167,-0.6943635940551758,1.359040379524231,0.220155268907547,1757650.680867167,139.0917510986328,79.90113830566406,-459.7413940429688,0
2023-02-13T13:26:25.204Z,218,1757650.725918167,0.8971710205078125,-0.601837158203125,-0.065399169921875,1757650.706898167,-0.2452097535133362,0.8206709027290344,0.3566713035106659,1757650.700429167,138.0043487548828,79.30256652832031,-459.6865844726562,0
2023-02-13T13:26:25.233Z,219,1757650.745937167,0.851104736328125,-0.7007293701171875,-0.1060638427734375,1757650.726918167,0.2371750026941299,0.3683077096939087,0.43963623046875,1757650.719990167,136.2957305908203,78.327392578125,-459.3856201171875,0
2023-02-13T13:26:25.244Z,220,1757650.765957167,0.79388427734375,-0.6955413818359375,-0.115234375,1757650.746937167,-0.03799398615956306,0.5778630971908569,0.47067990899086,1757650.739552167,134.5635223388672,77.53485107421875,-458.7840576171875,0
2023-02-13T13:26:25.270Z,221,1757650.785946167,0.775177001953125,-0.6660919189453125,-0.0399627685546875,1757650.766957167,-0.3382105231285095,1.047435641288757,0.4519400298595428,1757650.759114167,132.5835876464844,76.25262451171875,-458.8182678222656,0
2023-02-13T13:26:25.284Z,222,1757650.805965167,0.8210296630859375,-0.6204681396484375,0.069976806640625,1757650.786946167,-0.3406992554664612,1.273106336593628,0.4091829657554626,1757650.778706167,130.4998779296875,74.60676574707031,-458.6778564453125,0
2023-02-13T13:26:25.313Z,223,1757650.825985167,0.836181640625,-0.632843017578125,0.1359100341796875,1757650.806965167,-0.1211245581507683,0.8217662572860718,0.5007818937301636,1757650.798268167,128.4832000732422,72.11384582519531,-458.8846130371094,0
2023-02-13T13:26:25.324Z,224,1757650.845974167,0.8749237060546875,-0.7238616943359375,0.0914306640625,1757650.826985167,-0.02875654771924019,0.2533299922943115,0.4861957430839539,1757650.817830167,126.1851806640625,69.15060424804688,-459.0694580078125,0
2023-02-13T13:26:25.354Z,225,1757650.865994167,0.8343505859375,-0.6959381103515625,0.029052734375,1757650.846974167,-0.4016592800617218,0.2636342942714691,0.3772937655448914,1757650.856984167,123.6903228759766,60.95378112792969,-460.4309692382812,0
2023-02-13T13:26:25.364Z,226,1757650.886008875,0.822845458984375,-0.6494140625,-0.00732421875,1757650.866994167,-0.9072015285491943,0.7947775721549988,0.4616741538047791,1757650.876541875,124.3040771484375,57.15681457519531,-462.4241943359375,0
2023-02-13T13:26:25.393Z,227,1757650.906028875,0.8682403564453125,-0.6243438720703125,0.0687408447265625,1757650.887008875,-1.209175229072571,1.513967156410217,0.3825801312923431,1757650.896102875,126.110595703125,53.71554565429688,-464.2003784179688,0
2023-02-13T13:26:25.404Z,228,1757650.926017875,0.9606475830078125,-0.631195068359375,0.183258056640625,1757650.907028875,-0.8867974877357483,1.530641913414001,0.2595378160476685,1757650.915664875,129.5856475830078,51.19024658203125,-465.1597290039062,0
2023-02-13T13:26:25.430Z,229,1757650.946036875,1.008834838867188,-0.688995361328125,0.20660400390625,1757650.927017875,-0.3875210881233215,0.8078305125236511,-0.08592849224805832,1757650.935226875,133.8537292480469,50.61024475097656,-464.5973510742188,0
2023-02-13T13:26:25.445Z,230,1757650.966056875,1.024948120117188,-0.766326904296875,0.0463104248046875,1757650.967056875,-1.040114045143127,-0.04006246477365494,-0.9509764909744263,1757650.954788875,138.2031860351562,50.73921203613281,-464.6390991210938,0
2023-02-13T13:26:25.474Z,231,1757650.986075875,1.017532348632812,-0.772216796875,-0.013031005859375,1757650.967056875,-1.040114045143127,-0.04006246477365494,-0.9509764909744263,1757650.974349875,142.6723937988281,52.64019775390625,-465.7127685546875,0
2023-02-13T13:26:25.484Z,232,1757651.006064875,1.183975219726562,-0.7435150146484375,-0.0226898193359375,1757650.987075875,-1.225023508071899,0.560905933380127,-0.6153396368026733,1757650.993911875,145.9971771240234,55.03607177734375,-466.3248291015625,0
2023-02-13T13:26:25.514Z,233,1757651.026084875,1.400161743164062,-0.7363433837890625,0.07366943359375,1757651.007064875,-0.8053593635559082,0.4746860861778259,0.05175667256116867,1757651.013473875,147.1001739501953,57.166259765625,-466.019287109375,0
2023-02-13T13:26:25.524Z,234,1757651.046103875,1.506179809570312,-0.77520751953125,0.085784912109375,1757651.027084875,-0.1455721110105515,-0.07157804816961288,0.4105840623378754,1757651.033035875,146.6600952148438,58.24777221679688,-465.7454223632812,0
2023-02-13T13:26:25.552Z,235,1757651.066123875,1.412246704101562,-0.792999267578125,0.134429931640625,1757651.047103875,0.08049830794334412,-0.4524412453174591,0.4270583987236023,1757651.052596875,145.7384338378906,59.273193359375,-465.2740173339844,0
2023-02-13T13:26:25.564Z,236,1757651.086112875,1.3607177734375,-0.8831329345703125,0.1060943603515625,1757651.067123875,0.02782284282147884,-0.3168682157993317,0.3830483257770538,1757651.072189875,144.1893768310547,59.81816101074219,-465.2461547851562,0
2023-02-13T13:26:25.589Z,237,1757651.106131875,1.30810546875,-0.9618072509765625,0.0733489990234375,1757651.087112875,0.002021605614572763,-0.2259287387132645,0.3300165235996246,1757651.091751875,142.4088592529297,60.33087158203125,-465.298095703125,0
2023-02-13T13:26:25.604Z,238,1757651.126151875,1.245376586914062,-1.030105590820312,0.045440673828125,1757651.127151875,0.3350027501583099,-0.3145137429237366,0.3262031376361847,1757651.111312875,140.0211029052734,60.87416076660156,-465.2386779785156,0
2023-02-13T13:26:25.633Z,239,1757651.146140875,1.16387939453125,-1.0556640625,0.0796051025390625,1757651.127151875,0.3350027501583099,-0.3145137429237366,0.3262031376361847,1757651.130874875,137.3903656005859,62.17599487304688,-465.0219116210938,0
2023-02-13T13:26:25.645Z,240,1757651.166159875,1.102615356445312,-1.080062866210938,0.0677947998046875,1757651.147140875,0.4601183235645294,-0.1317790746688843,0.1350800544023514,1757651.150436875,135.3986663818359,63.50241088867188,-464.2404479980469,0
2023-02-13T13:26:25.673Z,241,1757651.186179875,1.07647705078125,-1.050308227539062,0.012939453125,1757651.167159875,0.0848938524723053,0.05637113004922867,-0.2422179579734802,1757651.169998875,133.8169860839844,65.96676635742188,-463.8834228515625,0
2023-02-13T13:26:25.684Z,242,1757651.206199875,1.096343994140625,-0.95849609375,-0.03509521484375,1757651.187179875,-0.4214987754821777,0.1774525493383408,-0.5907791256904602,1757651.189559875,133.2191772460938,68.87690734863281,-464.0941467285156,0
2023-02-13T13:26:25.713Z,243,1757651.226188875,1.176773071289062,-0.8513336181640625,-0.087890625,1757651.207199875,-0.6314384341239929,0.3338291049003601,-0.8580126762390137,1757651.209152875,133.5108795166016,71.84097290039062,-464.158203125,0
2023-02-13T13:26:25.724Z,244,1757651.246207875,1.231307983398438,-0.7943115234375,-0.1468505859375,1757651.227188875,-0.2511219680309296,-0.004188619554042816,-0.8659363985061646,1757651.228713875,134.8325042724609,74.8077392578125,-463.6571044921875,0
2023-02-13T13:26:25.750Z,245,1757651.266227875,1.201416015625,-0.7546844482421875,-0.15673828125,1757651.247207875,0.3983311355113983,-0.5239521861076355,-0.7118275165557861,1757651.248275875,136.6501617431641,77.304443359375,-462.7597045898438,0
2023-02-13T13:26:25.765Z,246,1757651.286246875,1.118194580078125,-0.7285308837890625,-0.132904052734375,1757651.267227875,0.9297348260879517,-0.7205986380577087,-0.4928472638130188,1757651.267837875,138.8655548095703,78.6336669921875,-461.8709716796875,0
2023-02-13T13:26:25.793Z,247,1757651.306235875,1.073822021484375,-0.683319091796875,-0.0851287841796875,1757651.287246875,0.9223211407661438,-0.4591383039951324,-0.1616794466972351,1757651.287399875,140.4565887451172,79.49507141113281,-461.087158203125,0
2023-02-13T13:26:25.804Z,248,1757651.326255875,1.013961791992188,-0.657958984375,-0.0850830078125,1757651.307235875,0.6577779054641724,-0.3082635700702667,0.1598636955022812,1757651.306991875,141.4813537597656,79.93063354492188,-460.8715209960938,0
2023-02-13T13:26:25.834Z,249,1757651.346274875,0.8858184814453125,-0.6107330322265625,-0.0914154052734375,1757651.327255875,0.6147720813751221,-0.2936409413814545,0.3722817003726959,1757651.326553875,142.3182220458984,80.25135803222656,-460.7905883789062,0
2023-02-13T13:26:25.845Z,250,1757651.366263875,0.8139190673828125,-0.5996551513671875,-0.0511627197265625,1757651.367263875,1.326753497123718,-0.2844522297382355,0.7947362661361694,1757651.346115875,142.6893768310547,79.97970581054688,-460.6549682617188,0
2023-02-13T13:26:25.872Z,251,1757651.386283875,0.7555694580078125,-0.63177490234375,-0.0225677490234375,1757651.367263875,1.326753497123718,-0.2844522297382355,0.7947362661361694,1757651.365707875,142.9128723144531,79.35072326660156,-460.1587524414062,0
2023-02-13T13:26:25.885Z,252,1757651.406302875,0.606964111328125,-0.57965087890625,0.061065673828125,1757651.387283875,0.942935049533844,-0.7656657099723816,0.8266744613647461,1757651.385269875,142.5543060302734,79.10601806640625,-459.9314575195312,0
2023-02-13T13:26:25.910Z,253,1757651.426322875,0.539764404296875,-0.5294952392578125,0.1087188720703125,1757651.407302875,0.6854752898216248,-0.8537231683731079,0.7437015771865845,1757651.404861875,142.2074432373047,78.06109619140625,-459.6963806152344,0
2023-02-13T13:26:25.925Z,254,1757651.446311875,0.487701416015625,-0.5036468505859375,0.05841064453125,1757651.427322875,0.5734957456588745,-0.9423723220825195,0.6710103154182434,1757651.424423875,141.8328094482422,77.74832153320312,-459.5643615722656,0
2023-02-13T13:26:25.953Z,255,1757651.466330875,0.481231689453125,-0.4740142822265625,0.0721282958984375,1757651.447311875,0.4187218844890594,-1.057724237442017,0.6314682364463806,1757651.443984875,141.3430023193359,77.58988952636719,-459.4830932617188,0
2023-02-13T13:26:25.965Z,256,1757651.486350875,0.4984130859375,-0.4869842529296875,0.0639190673828125,1757651.467330875,0.6570942401885986,-1.146653056144714,0.6967929005622864,1757651.463577875,140.6751708984375,77.11463928222656,-459.6983642578125,0
2023-02-13T13:26:25.994Z,257,1757651.506369875,0.462371826171875,-0.4944915771484375,0.0565338134765625,1757651.487350875,0.9279382824897766,-1.411593556404114,0.8674184679985046,1757651.483138875,139.8434295654297,76.67462158203125,-459.5361938476562,0
2023-02-13T13:26:26.004Z,258,1757651.526358875,0.417724609375,-0.5167388916015625,0.069427490234375,1757651.507369875,0.8652330636978149,-1.416237592697144,1.00750470161438,1757651.502731875,139.103759765625,76.02177429199219,-459.3363037109375,0
2023-02-13T13:26:26.034Z,259,1757651.546378875,0.3838043212890625,-0.5490570068359375,0.0664520263671875,1757651.527358875,0.5576736330986023,-1.242719411849976,1.025033354759216,1757651.522292875,137.9700622558594,75.73605346679688,-459.4893798828125,0
2023-02-13T13:26:26.045Z,260,1757651.566397875,0.470703125,-0.5809783935546875,0.04107666015625,1757651.547378875,0.1866044998168945,-0.9444746375083923,0.981645405292511,1757651.541854875,137.19482421875,75.36073303222656,-459.2574462890625,0
2023-02-13T13:26:26.070Z,261,1757651.586386875,0.527191162109375,-0.559112548828125,0.0287933349609375,1757651.567397875,-0.07840213179588318,-0.8086989521980286,0.8342365622520447,1757651.561447875,136.2275390625,75.06925964355469,-459.6229248046875,0
2023-02-13T13:26:26.085Z,262,1757651.606406875,0.53985595703125,-0.5413055419921875,0.017486572265625,1757651.587386875,-0.04750733077526093,-0.9903310537338257,0.7998290061950684,1757651.581008875,135.5792083740234,75.04779052734375,-459.636962890625,0
2023-02-13T13:26:26.111Z,263,1757651.626426875,0.575042724609375,-0.52337646484375,0.00299072265625,1757651.607406875,0.2772092223167419,-1.07588005065918,0.801264226436615,1757651.600601875,134.6238098144531,74.83650207519531,-460.0161743164062,0
2023-02-13T13:26:26.125Z,264,1757651.646445875,0.6078338623046875,-0.473724365234375,0.0329132080078125,1757651.627426875,0.4756427109241486,-0.946596622467041,0.6814517974853516,1757651.620162875,134.0147094726562,74.26722717285156,-459.892822265625,0
2023-02-13T13:26:26.145Z,265,1757651.666434875,0.6834564208984375,-0.3933563232421875,0.0824127197265625,1757651.647445875,0.4467687010765076,-0.9777276515960693,0.5326439142227173,1757651.639724875,133.2772216796875,74.17048645019531,-459.4768676757812,0
2023-02-13T13:26:26.165Z,266,1757651.686454875,0.5948638916015625,-0.246124267578125,0.0511932373046875,1757651.667434875,0.2476223111152649,-0.9044294953346252,0.2940888702869415,1757651.659316875,132.5599670410156,73.87370300292969,-459.5260620117188,0
2023-02-13T13:26:26.193Z,267,1757651.706473875,0.42987060546875,-0.1466064453125,0.0672454833984375,1757651.687454875,0.247839629650116,-1.064712047576904,0.4078061282634735,1757651.678909875,132.1692352294922,74.10247802734375,-459.3193664550781,0
2023-02-13T13:26:26.205Z,268,1757651.726493875,0.3122711181640625,-0.22174072265625,0.0548553466796875,1757651.707473875,0.7240359783172607,-1.294231295585632,1.106031060218811,1757651.698470875,131.5293731689453,74.00558471679688,-459.3337707519531,0
2023-02-13T13:26:26.234Z,269,1757651.746482875,0.2154998779296875,-0.4158172607421875,-0.0333709716796875,1757651.727493875,1.194351077079773,-1.829000949859619,2.144719839096069,1757651.718032875,130.3616027832031,73.94923400878906,-458.92919921875,0
2023-02-13T13:26:26.245Z,270,1757651.766501875,0.136474609375,-0.6715240478515625,-0.1421966552734375,1757651.747482875,0.8984341621398926,-2.313287258148193,2.999163150787354,1757651.757186875,125.4921264648438,73.08279418945312,-457.7760009765625,0
2023-02-13T13:26:26.270Z,271,1757651.786521875,-0.055633544921875,-0.830230712890625,-0.185089111328125,1757651.767501875,-0.1884045302867889,-2.177514553070068,3.117677450180054,1757651.776779875,122.7868041992188,73.30714416503906,-457.7933349609375,0
2023-02-13T13:26:26.285Z,272,1757651.806510875,-0.1900177001953125,-0.867218017578125,-0.2489471435546875,1757651.787521875,-1.435711145401001,-0.8565711379051208,2.751951932907104,1757651.796340875,120.6379852294922,73.68736267089844,-458.7906494140625,0
2023-02-13T13:26:26.314Z,273,1757651.826529875,-0.05145263671875,-0.909912109375,-0.3410491943359375,1757651.807510875,-2.284930229187012,0.8677915930747986,1.974123001098633,1757651.815933875,119.1709136962891,74.21136474609375,-460.4995727539062,0
2023-02-13T13:26:26.325Z,274,1757651.846549875,0.1449737548828125,-0.830413818359375,-0.3341064453125,1757651.827529875,-2.264913320541382,2.046456813812256,1.009454369544983,1757651.835494875,118.9373321533203,74.96612548828125,-462.3833312988281,0
2023-02-13T13:26:26.354Z,275,1757651.866568875,0.30548095703125,-0.75543212890625,-0.2629241943359375,1757651.847549875,-1.453706741333008,1.975512862205505,0.1066745147109032,1757651.855056875,119.1496124267578,75.16212463378906,-463.6195983886719,0
2023-02-13T13:26:26.365Z,276,1757651.88654025,0.390594482421875,-0.75634765625,-0.1767120361328125,1757651.867568875,-0.2426419407129288,1.009069561958313,-0.4323988258838654,1757651.87460125,119.8199462890625,74.70956420898438,-463.9122924804688,0
2023-02-13T13:26:26.391Z,277,1757651.90656025,0.2616119384765625,-0.7722015380859375,-0.1236114501953125,1757651.88754025,0.7850964069366455,-0.2060769945383072,-0.8487632870674133,1757651.89419325,120.4546203613281,73.81752014160156,-463.0369262695312,0
2023-02-13T13:26:26.405Z,278,1757651.92657925,0.205108642578125,-0.857818603515625,-0.0668792724609375,1757651.90756025,1.298187375068665,-0.9764003157615662,-1.167718052864075,1757651.91375525,121.3199005126953,73.31161499023438,-462.0856323242188,0
2023-02-13T13:26:26.431Z,279,1757651.94659925,0.1529388427734375,-0.872314453125,-0.0540618896484375,1757651.94759925,0.8968495726585388,-0.6080294847488403,-1.99588930606842,1757651.93334725,122.4194793701172,73.17730712890625,-461.2638549804688,0
2023-02-13T13:26:26.445Z,280,1757651.96658825,0.20367431640625,-0.817901611328125,-0.0187225341796875,1757651.94759925,0.8968495726585388,-0.6080294847488403,-1.99588930606842,1757651.95290925,123.5538330078125,73.00430297851562,-460.4771728515625,0
2023-02-13T13:26:26.469Z,281,1757651.98660825,0.244903564453125,-0.7458953857421875,0.0005645751953125,1757651.96758825,0.4456432461738586,-0.38770592212677,-2.113658905029297,1757651.97250125,124.9625396728516,73.46952819824219,-460.12255859375,0
2023-02-13T13:26:26.485Z,282,1757652.00662725,0.286376953125,-0.718353271484375,-0.0538177490234375,1757651.98760825,0.08378118276596069,-0.3801246881484985,-1.911632776260376,1757651.99206325,126.1985626220703,73.83544921875,-459.9604797363281,0
2023-02-13T13:26:26.514Z,283,1757652.02661625,0.324615478515625,-0.7018280029296875,-0.1060028076171875,1757652.00762725,-0.2485938370227814,-0.1031410321593285,-1.756389856338501,1757652.01165525,127.6146087646484,74.29960632324219,-460.2431030273438,0
2023-02-13T13:26:26.525Z,284,1757652.04663625,0.31524658203125,-0.636260986328125,-0.0778656005859375,1757652.02761625,-0.4195517301559448,0.4609644114971161,-1.635296225547791,1757652.03124825,128.7212524414062,74.80821228027344,-460.7200317382812,0
2023-02-13T13:26:26.555Z,285,1757652.06665525,0.3387298583984375,-0.629180908203125,-0.062286376953125,1757652.04763625,-0.4459079802036285,0.7332702279090881,-1.508846640586853,1757652.05080925,130.1219635009766,75.03260803222656,-460.7235717773438,0
2023-02-13T13:26:26.565Z,286,1757652.08667525,0.4156646728515625,-0.6551513671875,-0.0830535888671875,1757652.06765525,-0.481407105922699,1.009252786636353,-1.449030160903931,1757652.07040225,131.3382110595703,74.77137756347656,-460.931640625,0
2023-02-13T13:26:26.589Z,287,1757652.10666425,0.603668212890625,-0.652099609375,-0.103424072265625,1757652.08767525,-0.541553258895874,1.063080310821533,-1.406786918640137,1757652.08996325,132.7733154296875,75.09967041015625,-461.389404296875,0
2023-02-13T13:26:26.605Z,288,1757652.12668325,0.536285400390625,-0.530914306640625,-0.076141357421875,1757652.10766425,-0.4945034682750702,0.9736189246177673,-1.353757739067078,1757652.10955625,133.9859008789062,75.03744506835938,-461.4124145507812,0
2023-02-13T13:26:26.633Z,289,1757652.14670325,0.5554046630859375,-0.55340576171875,-0.0942840576171875,1757652.12768325,-0.2741109132766724,0.8170894980430603,-1.115018129348755,1757652.12911825,135.4291687011719,75.43228149414062,-461.622802734375,0
2023-02-13T13:26:26.645Z,290,1757652.16672225,0.6875,-0.6875457763671875,-0.1748809814453125,1757652.14770325,-0.1455606669187546,0.9706639051437378,-0.7725630402565002,1757652.14871025,136.1129608154297,75.53157043457031,-461.3817443847656,0
2023-02-13T13:26:26.678Z,291,1757652.18671125,0.7693328857421875,-0.6629638671875,-0.153533935546875,1757652.16772225,-0.4004060029983521,1.31544041633606,-0.7332553267478943,1757652.16827225,137.2347259521484,75.96377563476562,-461.6026611328125,0
2023-02-13T13:26:26.685Z,292,1757652.20673125,0.7260894775390625,-0.5250396728515625,-0.08795166015625,1757652.18771125,-0.729241669178009,1.721420764923096,-0.8898159265518188,1757652.18783325,137.9683685302734,76.46940612792969,-461.5892333984375,0
2023-02-13T13:26:26.714Z,293,1757652.22675025,0.697784423828125,-0.4289093017578125,-0.071533203125,1757652.20773125,-0.7763357162475586,1.570519328117371,-0.7879654169082642,1757652.20742625,138.9815979003906,77.06858825683594,-461.7407836914062,0
2023-02-13T13:26:26.725Z,294,1757652.24677025,0.7403106689453125,-0.530029296875,-0.1445465087890625,1757652.22775025,-0.5475578904151917,1.065370917320251,-0.4838180840015411,1757652.22698725,139.5826568603516,77.66531372070312,-461.7271728515625,0
2023-02-13T13:26:26.753Z,295,1757652.26675925,0.81488037109375,-0.5919036865234375,-0.1925506591796875,1757652.24777025,-0.1948083639144897,0.951073169708252,-0.5414038896560669,1757652.24654925,139.9778594970703,77.74732971191406,-461.5105285644531,0
2023-02-13T13:26:26.765Z,296,1757652.28677825,0.807342529296875,-0.53985595703125,-0.1317291259765625,1757652.26775925,0.1512936502695084,0.9033697843551636,-0.7977488040924072,1757652.26614125,140.9026641845703,77.76419067382812,-461.1502075195312,0
2023-02-13T13:26:26.789Z,297,1757652.30679825,0.813323974609375,-0.5032806396484375,-0.0815582275390625,1757652.28777825,0.2898778915405273,0.7089822292327881,-0.9017881751060486,1757652.28570325,141.8030548095703,78.14164733886719,-461.045166015625,0
2023-02-13T13:26:26.805Z,298,1757652.32678725,0.8154449462890625,-0.5496368408203125,-0.0008087158203125,1757652.30779825,0.3410641252994537,0.4582650363445282,-0.8956330418586731,1757652.30529625,142.3600006103516,78.53109741210938,-460.5592041015625,0
2023-02-13T13:26:26.833Z,299,1757652.34680725,0.934783935546875,-0.63958740234375,-0.011077880859375,1757652.32778725,0.4365344345569611,0.3213900029659271,-0.7082900404930115,1757652.32485725,142.9585266113281,78.69920349121094,-460.1553344726562,0
2023-02-13T13:26:26.845Z,300,1757652.36682625,0.99493408203125,-0.6457061767578125,-0.0255889892578125,1757652.34780725,0.3890518844127655,0.3337159156799316,-0.6846550107002258,1757652.34441925,143.0407409667969,79.04981994628906,-459.9078369140625,0
2023-02-13T13:26:26.873Z,301,1757652.38684625,0.919677734375,-0.5909423828125,-0.0063934326171875,1757652.36782625,0.2544637024402618,0.3105951547622681,-0.573374330997467,1757652.36398125,143.4019012451172,79.67405700683594,-459.5756225585938,0
2023-02-13T13:26:26.885Z,302,1757652.40683525,0.851654052734375,-0.5742645263671875,0.02166748046875,1757652.38784625,0.1338342279195786,0.5238195657730103,-0.4833437502384186,1757652.38357325,143.8273315429688,80.07954406738281,-459.6813354492188,0
2023-02-13T13:26:26.913Z,303,1757652.42685425,0.8130340576171875,-0.60296630859375,0.0045318603515625,1757652.40783525,-0.1048963218927383,0.6999578475952148,-0.3731586635112762,1757652.40313525,144.1711883544922,80.42233276367188,-459.2197265625,0
2023-02-13T13:26:26.925Z,304,1757652.44687425,0.8043365478515625,-0.5827178955078125,-0.052825927734375,1757652.42785425,-0.4860625863075256,0.9972941875457764,-0.2668817639350891,1757652.42269725,144.3420104980469,80.90048217773438,-459.3969116210938,0
2023-02-13T13:26:26.954Z,305,1757652.46689325,0.8331298828125,-0.5403594970703125,-0.0474700927734375,1757652.44787425,-0.7015453577041626,1.298046231269836,-0.2202516794204712,1757652.44225825,144.2425079345703,81.10304260253906,-459.4657287597656,0
2023-02-13T13:26:26.965Z,306,1757652.48688225,0.92529296875,-0.504730224609375,0.0147705078125,1757652.46789325,-0.5363984704017639,1.417167663574219,-0.1511711478233337,1757652.46182025,144.4679870605469,81.58673095703125,-459.5885009765625,0
2023-02-13T13:26:26.997Z,307,1757652.50690225,0.9262847900390625,-0.484375,0.0464324951171875,1757652.48788225,-0.2393047362565994,1.061633229255676,-0.06241437420248985,1757652.48138225,144.6367950439453,81.8416748046875,-459.6558227539062,0
2023-02-13T13:26:27.005Z,308,1757652.52692125,0.9253692626953125,-0.540740966796875,0.031768798828125,1757652.50790225,-0.09046891331672668,0.6959404349327087,0.09246362000703812,1757652.50097425,144.7304077148438,82.20610046386719,-460.0418090820312,0
2023-02-13T13:26:27.033Z,309,1757652.54691025,0.8582763671875,-0.5804595947265625,0.0228118896484375,1757652.52792125,-0.2905181050300598,0.663341224193573,0.1072460263967514,1757652.52053625,144.4538879394531,82.46603393554688,-460.1145629882812,0
2023-02-13T13:26:27.046Z,310,1757652.56693025,0.8751373291015625,-0.586883544921875,0.002532958984375,1757652.56793025,-0.7261167168617249,1.163339853286743,0.1193674057722092,1757652.54012825,143.9500579833984,82.99348449707031,-460.6616821289062,0
2023-02-13T13:26:27.066Z,311,1757652.58694925,0.9197235107421875,-0.5784454345703125,0.0179443359375,1757652.56793025,-0.7261167168617249,1.163339853286743,0.1193674057722092,1757652.55969025,143.6614990234375,83.63604736328125,-461.7737426757812,0
2023-02-13T13:26:27.085Z,312,1757652.60696925,0.92303466796875,-0.505950927734375,0.1072845458984375,1757652.58794925,-0.3126125037670135,1.090655326843262,0.2759476900100708,1757652.57925225,143.6024932861328,84.3868408203125,-462.7227172851562,0
2023-02-13T13:26:27.116Z,313,1757652.62695825,0.931488037109375,-0.5422821044921875,0.1587677001953125,1757652.60796925,0.1496470123529434,0.857383668422699,0.4065909385681152,1757652.59884425,143.2916412353516,84.29397583007812,-464.0664978027344,0
2023-02-13T13:26:27.125Z,314,1757652.64697725,0.89886474609375,-0.6006622314453125,0.2173309326171875,1757652.62795825,0.05322380736470222,0.6541112661361694,0.3435792028903961,1757652.63799825,142.8944091796875,84.51812744140625,-467.150634765625,0
2023-02-13T13:26:27.157Z,315,1757652.66699725,0.8529815673828125,-0.58502197265625,0.2361907958984375,1757652.64797725,-0.3826118111610413,0.5561327338218689,0.2557201981544495,1757652.65756025,143.3452606201172,84.39076232910156,-469.7968444824219,0
2023-02-13T13:26:27.165Z,316,1757652.68701625,0.7794342041015625,-0.56732177734375,0.200103759765625,1757652.66799725,-0.7179232239723206,0.6916272044181824,0.3236459791660309,1757652.67715225,144.2903442382812,84.23382568359375,-471.8168029785156,0
2023-02-13T13:26:27.193Z,317,1757652.70700525,0.752227783203125,-0.63177490234375,0.20562744140625,1757652.68801625,-0.6413557529449463,0.924324095249176,0.4706631302833557,1757652.69671425,145.4566955566406,83.84654235839844,-473.8855590820312,0
2023-02-13T13:26:27.205Z,318,1757652.72702525,0.741912841796875,-0.7030487060546875,0.282196044921875,1757652.70800525,-0.1338949501514435,1.062668681144714,0.544548511505127,1757652.71630625,147.6089935302734,82.51905822753906,-475.6678466796875,0
2023-02-13T13:26:27.233Z,319,1757652.74704525,0.7386016845703125,-0.7742767333984375,0.3409423828125,1757652.72802525,0.3817108869552612,0.7563979029655457,0.7385126948356628,1757652.73589925,149.3344573974609,80.19256591796875,-475.7321166992188,0
2023-02-13T13:26:27.247Z,320,1757652.76703425,0.7567291259765625,-0.82574462890625,0.3964996337890625,1757652.76803425,-0.0796828418970108,0.5403361916542053,0.1475588232278824,1757652.75546025,151.6100311279297,78.25048828125,-475.6520385742188,0
2023-02-13T13:26:27.277Z,321,1757652.78705325,0.8297882080078125,-0.82696533203125,0.3969268798828125,1757652.76803425,-0.0796828418970108,0.5403361916542053,0.1475588232278824,1757652.77502225,153.9148712158203,77.9022216796875,-474.0682678222656,0
2023-02-13T13:26:27.285Z,322,1757652.80707325,0.876800537109375,-0.77423095703125,0.3410797119140625,1757652.78805325,-0.7802500128746033,0.8810796737670898,-0.4385539293289185,1757652.79461425,155.7873077392578,78.96492004394531,-470.5308837890625,0
2023-02-13T13:26:27.314Z,323,1757652.82709225,0.973602294921875,-0.713714599609375,0.359130859375,1757652.80807325,-0.8976703882217407,1.22034752368927,-0.9177026748657227,1757652.81417625,157.3136138916016,80.52713012695312,-467.0786743164062,0
2023-02-13T13:26:27.325Z,324,1757652.84708125,1.196319580078125,-0.705291748046875,0.370025634765625,1757652.82809225,-0.6364113688468933,0.9364169836044312,-0.8328162431716919,1757652.83376825,157.8531341552734,81.77445983886719,-463.686279296875,0
2023-02-13T13:26:27.354Z,325,1757652.86710125,1.367156982421875,-0.7023468017578125,0.397003173828125,1757652.84808125,-0.4734064340591431,0.02494183555245399,-0.4843014478683472,1757652.85333025,157.6497344970703,82.08024597167969,-462.1766357421875,0
2023-02-13T13:26:27.365Z,326,1757652.887102542,1.427474975585938,-0.67730712890625,0.3429718017578125,1757652.86810125,-0.3492397665977478,-0.5892382264137268,-0.387743204832077,1757652.872904542,156.5774841308594,82.49192810058594,-461.5114440917969,0
2023-02-13T13:26:27.396Z,327,1757652.907122542,1.414794921875,-0.638580322265625,0.3092041015625,1757652.888102542,-0.3376565873622894,-0.5247471332550049,-0.2154718339443207,1757652.892466542,156.1614685058594,82.81492614746094,-461.3433837890625,0
2023-02-13T13:26:27.405Z,328,1757652.927111542,1.408981323242188,-0.70391845703125,0.2691802978515625,1757652.908122542,-0.3962131142616272,-0.3542680740356445,0.08588588237762451,1757652.912059542,155.7383880615234,82.87802124023438,-462.0518188476562,0
2023-02-13T13:26:27.436Z,329,1757652.947130542,1.386367797851562,-0.7954559326171875,0.2246551513671875,1757652.928111542,-0.3856100142002106,-0.3383737802505493,0.2550381422042847,1757652.931620542,155.1102294921875,82.81913757324219,-462.8649291992188,0
2023-02-13T13:26:27.445Z,330,1757652.967150542,1.362197875976562,-0.855194091796875,0.2208709716796875,1757652.948130542,-0.3976219296455383,-0.4367173910140991,0.3041785359382629,1757652.951213542,154.5912780761719,82.39482116699219,-464.289794921875,0
2023-02-13T13:26:27.472Z,331,1757652.987139542,1.407073974609375,-0.8993377685546875,0.26080322265625,1757652.968150542,-0.1937428414821625,-0.742320716381073,0.3071700632572174,1757652.970774542,153.8895263671875,82.09672546386719,-466.1322021484375,0
2023-02-13T13:26:27.485Z,332,1757653.007158542,1.37176513671875,-0.96533203125,0.2343902587890625,1757652.988139542,0.0871407613158226,-1.023263931274414,0.1173886805772781,1757652.990367542,152.85693359375,81.87492370605469,-468.33447265625,0
2023-02-13T13:26:27.513Z,333,1757653.027178542,1.32421875,-0.997222900390625,0.19873046875,1757653.008158542,0.07807056605815887,-0.9345396757125854,-0.1824851185083389,1757653.009928542,150.7756805419922,82.08842468261719,-470.883056640625,0
2023-02-13T13:26:27.526Z,334,1757653.047197542,1.28424072265625,-1.007644653320312,0.1376800537109375,1757653.028178542,-0.1885821670293808,-0.5717045068740845,-0.4547571241855621,1757653.029521542,148.6538848876953,82.92486572265625,-471.5147094726562,0
2023-02-13T13:26:27.553Z,335,1757653.067186542,1.200881958007812,-0.95684814453125,0.0638427734375,1757653.048197542,-0.3242571651935577,-0.3572012782096863,-0.5742643475532532,1757653.049082542,146.9276123046875,83.91334533691406,-471.4305114746094,0
2023-02-13T13:26:27.565Z,336,1757653.087206542,1.1510009765625,-0.8524627685546875,0.051513671875,1757653.068186542,-0.4825932681560516,-0.1516678184270859,-0.536243200302124,1757653.068675542,144.9271392822266,84.81027221679688,-470.400390625,0
2023-02-13T13:26:27.596Z,337,1757653.107226542,1.136825561523438,-0.76824951171875,0.0200653076171875,1757653.088206542,-0.3401935398578644,-0.2665808200836182,-0.4849072992801666,1757653.088237542,144.0791168212891,85.41307067871094,-467.7769775390625,0
2023-02-13T13:26:27.605Z,338,1757653.127245542,1.094635009765625,-0.7181396484375,-0.029937744140625,1757653.108226542,-0.1691922247409821,-0.676857054233551,-0.4177149534225464,1757653.107798542,143.6682739257812,85.12109375,-465.6679077148438,0
2023-02-13T13:26:27.633Z,339,1757653.147234542,0.9502716064453125,-0.6483612060546875,-0.0579376220703125,1757653.128245542,0.05341049283742905,-1.015056967735291,-0.2990367710590363,1757653.127391542,144.4694519042969,84.77890014648438,-463.9609985351562,0
2023-02-13T13:26:27.645Z,340,1757653.167254542,0.85003662109375,-0.643585205078125,-0.093536376953125,1757653.148234542,0.2660473883152008,-0.9394926428794861,0.02683188021183014,1757653.146952542,144.8142395019531,84.03726196289062,-462.9180908203125,0
2023-02-13T13:26:27.673Z,341,1757653.187273542,0.7704620361328125,-0.6437530517578125,-0.089202880859375,1757653.168254542,0.3181465566158295,-0.7040085196495056,0.36275315284729,1757653.166545542,145.0816497802734,83.15461730957031,-462.2108154296875,0
2023-02-13T13:26:27.685Z,342,1757653.207262542,0.7064056396484375,-0.626800537109375,-0.0234222412109375,1757653.188273542,0.3076425194740295,-0.392561137676239,0.4504353404045105,1757653.186137542,145.2341918945312,82.67747497558594,-461.744384765625,0
2023-02-13T13:26:27.714Z,343,1757653.227282542,0.6410675048828125,-0.5969085693359375,0.0139007568359375,1757653.208262542,0.2993350327014923,-0.5912140607833862,0.507107675075531,1757653.205699542,145.1057891845703,81.89991760253906,-461.5210571289062,0
2023-02-13T13:26:27.726Z,344,1757653.247301542,0.6044769287109375,-0.55694580078125,0.018524169921875,1757653.248301542,0.2858197689056396,-0.6537562608718872,0.4451899826526642,1757653.225291542,145.148193359375,81.17811584472656,-461.5244750976562,0
2023-02-13T13:26:27.748Z,345,1757653.267321542,0.69512939453125,-0.5383453369140625,-0.0052642822265625,1757653.248301542,0.2858197689056396,-0.6537562608718872,0.4451899826526642,1757653.244853542,144.7050476074219,80.65853881835938,-461.375732421875,0
2023-02-13T13:26:27.766Z,346,1757653.287310542,0.6323089599609375,-0.4845428466796875,-0.0053558349609375,1757653.268321542,0.418230801820755,-1.03865122795105,0.4975868761539459,1757653.264414542,144.3987731933594,80.40653991699219,-461.5094604492188,0
2023-02-13T13:26:27.790Z,347,1757653.307329542,0.529327392578125,-0.44287109375,-0.003021240234375,1757653.288310542,0.7771461009979248,-1.341233134269714,0.730283796787262,1757653.284007542,143.8973999023438,79.76661682128906,-461.659912109375,0
2023-02-13T13:26:27.805Z,348,1757653.327349542,0.4661712646484375,-0.4873504638671875,0.013763427734375,1757653.308329542,1.162647724151611,-1.317031979560852,0.8269402980804443,1757653.303569542,143.4096069335938,79.4793701171875,-461.6104736328125,0
2023-02-13T13:26:27.833Z,349,1757653.347368542,0.4253387451171875,-0.5200347900390625,0.015594482421875,1757653.328349542,1.018009066581726,-1.21926486492157,0.8808450698852539,1757653.323161542,142.7392883300781,78.47479248046875,-461.2752380371094,0
2023-02-13T13:26:27.846Z,350,1757653.367357542,0.484100341796875,-0.5257415771484375,0.01519775390625,1757653.348368542,0.4879510402679443,-0.6376441121101379,0.7094804644584656,1757653.342723542,141.6957855224609,77.93302917480469,-461.086669921875,0
2023-02-13T13:26:27.873Z,351,1757653.387377542,0.540679931640625,-0.4267425537109375,0.0731658935546875,1757653.368357542,0.0779121071100235,-0.1081898510456085,0.4393110573291779,1757653.362315542,141.0664367675781,77.59257507324219,-460.8175964355469,0
2023-02-13T13:26:27.886Z,352,1757653.407396542,0.603363037109375,-0.3816070556640625,0.0839385986328125,1757653.388377542,0.182274729013443,-0.2803355157375336,0.4999637603759766,1757653.381877542,140.8819427490234,77.58815002441406,-461.0349731445312,0
2023-02-13T13:26:27.913Z,353,1757653.427385542,0.55902099609375,-0.401641845703125,0.0414276123046875,1757653.408396542,0.535275936126709,-0.968565046787262,0.8612385988235474,1757653.401469542,140.4853515625,77.27691650390625,-460.6825561523438,0
2023-02-13T13:26:27.926Z,354,1757653.447405542,0.5034332275390625,-0.44622802734375,0.0276947021484375,1757653.428385542,0.7228671312332153,-1.068795204162598,1.075047850608826,1757653.421031542,139.4614868164062,76.65556335449219,-460.8582153320312,0
2023-02-13T13:26:27.953Z,355,1757653.467424542,0.49114990234375,-0.4715728759765625,0.0502777099609375,1757653.448405542,0.6017138361930847,-0.7348511219024658,1.056018710136414,1757653.440623542,138.5257415771484,76.2042236328125,-460.8251037597656,0
2023-02-13T13:26:27.966Z,356,1757653.487444542,0.532073974609375,-0.485809326171875,0.0773162841796875,1757653.468424542,0.3759858906269073,-0.282621830701828,0.8523561358451843,1757653.460185542,137.6331481933594,75.49153137207031,-460.4619445800781,0
2023-02-13T13:26:27.989Z,357,1757653.507433542,0.6546630859375,-0.44384765625,0.1341552734375,1757653.488444542,0.3756087720394135,0.1051298826932907,0.4382846653461456,1757653.479777542,136.9077301025391,75.4503173828125,-460.2130737304688,0
2023-02-13T13:26:28.006Z,358,1757653.527453542,0.6405181884765625,-0.3246612548828125,0.1575469970703125,1757653.508433542,0.6135246753692627,0.2091420292854309,-0.06767811626195908,1757653.499369542,136.7608337402344,75.19638061523438,-459.8506164550781,0
2023-02-13T13:26:28.032Z,359,1757653.547472542,0.5221710205078125,-0.240081787109375,0.153717041015625,1757653.528453542,1.060951471328735,-0.3727685213088989,-0.2852171063423157,1757653.538523542,137.0852813720703,75.09103393554688,-458.6900024414062,0
2023-02-13T13:26:28.046Z,360,1757653.567492542,0.395660400390625,-0.320587158203125,0.1118927001953125,1757653.548472542,1.573114633560181,-1.239698529243469,0.2225201576948166,1757653.558085542,136.5847015380859,74.66828918457031,-457.6943969726562,0
2023-02-13T13:26:28.073Z,361,1757653.587481542,0.3737640380859375,-0.4841766357421875,0.05291748046875,1757653.568492542,1.584399700164795,-1.766602516174316,0.994706928730011,1757653.577647542,135.3913726806641,73.81988525390625,-457.156982421875,0
2023-02-13T13:26:28.086Z,362,1757653.607500542,0.3236236572265625,-0.644134521484375,-0.0988006591796875,1757653.588481542,0.7990284562110901,-1.678445816040039,1.368885040283203,1757653.597209542,134.3202972412109,73.71076965332031,-456.8734741210938,0
2023-02-13T13:26:28.113Z,363,1757653.627520542,0.2656097412109375,-0.720947265625,-0.117340087890625,1757653.608500542,-0.3552971184253693,-1.174049258232117,1.581223130226135,1757653.616770542,133.0132598876953,73.61846923828125,-457.4701538085938,0
2023-02-13T13:26:28.126Z,364,1757653.647509542,0.2490081787109375,-0.7564849853515625,-0.1180572509765625,1757653.628520542,-0.9786301851272583,-0.2508700489997864,1.506207227706909,1757653.636332542,131.7975006103516,73.68000793457031,-457.8813171386719,0
2023-02-13T13:26:28.154Z,365,1757653.667528542,0.3102569580078125,-0.7157135009765625,-0.0780181884765625,1757653.648509542,-1.084977984428406,0.3833977282047272,1.229992866516113,1757653.655924542,130.7475891113281,73.71134948730469,-458.6013793945312,0
2023-02-13T13:26:28.166Z,366,1757653.687548542,0.365325927734375,-0.734466552734375,-0.05267333984375,1757653.668528542,-0.8789198398590088,0.4746013879776001,0.8296130299568176,1757653.675486542,130.1289825439453,73.7666015625,-459.46337890625,0
2023-02-13T13:26:28.193Z,367,1757653.707567542,0.40850830078125,-0.7153472900390625,-0.0275421142578125,1757653.688548542,-0.4489514231681824,0.3858443796634674,0.2387585192918777,1757653.695079542,129.9296417236328,73.48690795898438,-459.6788940429688,0
2023-02-13T13:26:28.206Z,368,1757653.727556542,0.4322662353515625,-0.70172119140625,0.0311279296875,1757653.708567542,-0.1477066427469254,0.2464286834001541,-0.2547681033611298,1757653.714640542,130.3737182617188,73.54685974121094,-459.7532958984375,0
2023-02-13T13:26:28.233Z,369,1757653.747576542,0.430450439453125,-0.7121734619140625,0.0517730712890625,1757653.748576542,0.1980057656764984,0.007396663539111614,-0.6787031292915344,1757653.734233542,130.3473968505859,73.51533508300781,-459.71044921875,0
2023-02-13T13:26:28.246Z,370,1757653.767595542,0.5695953369140625,-0.6811981201171875,0.10211181640625,1757653.748576542,0.1980057656764984,0.007396663539111614,-0.6787031292915344,1757653.753794542,130.8402099609375,73.41427612304688,-459.4110412597656,0
2023-02-13T13:26:28.277Z,371,1757653.787615542,0.6519622802734375,-0.6153411865234375,0.1571502685546875,1757653.768595542,0.04975290969014168,0.2343230247497559,-1.063467025756836,1757653.773387542,132.0112457275391,73.84907531738281,-459.51904296875,0
2023-02-13T13:26:28.286Z,372,1757653.807604542,0.506561279296875,-0.5856170654296875,0.1491241455078125,1757653.788615542,0.1133348122239113,-0.3895275294780731,-0.6808629631996155,1757653.792948542,132.2588958740234,74.03135681152344,-459.3160400390625,0
2023-02-13T13:26:28.313Z,373,1757653.827623542,0.2823944091796875,-0.6208343505859375,0.096832275390625,1757653.808604542,0.2082903534173965,-0.7913247346878052,-0.2167197912931442,1757653.812510542,132.3435974121094,74.03663635253906,-459.3397521972656,0
2023-02-13T13:26:28.326Z,374,1757653.847643542,0.115447998046875,-0.629241943359375,0.0621337890625,1757653.828623542,-0.01464525517076254,-0.1847248375415802,-0.1616538763046265,1757653.832102542,132.3802032470703,74.20361328125,-459.19384765625,0
2023-02-13T13:26:28.353Z,375,1757653.867663542,0.1064453125,-0.617889404296875,0.061492919921875,1757653.848643542,-0.628068745136261,0.8970120549201965,-0.5468758940696716,1757653.851664542,132.7997131347656,74.69517517089844,-459.5028686523438,0
2023-02-13T13:26:28.366Z,376,1757653.88765325,0.2263031005859375,-0.5058441162109375,0.0858154296875,1757653.868663542,-1.189095616340637,1.756782412528992,-1.131839990615845,1757653.87122725,133.6563262939453,74.90556335449219,-460.2388305664062,0
2023-02-13T13:26:28.398Z,377,1757653.90767225,0.411041259765625,-0.3795318603515625,0.1240997314453125,1757653.88865325,-1.154744744300842,1.713742256164551,-1.434160709381104,1757653.89078925,135.0758209228516,75.42839050292969,-460.6808471679688,0
2023-02-13T13:26:28.406Z,378,1757653.92769225,0.534759521484375,-0.3777313232421875,0.0905303955078125,1757653.90867225,-0.5291634202003479,0.9899140000343323,-1.380971312522888,1757653.91038125,136.7434234619141,75.77760314941406,-460.792724609375,0
2023-02-13T13:26:28.436Z,379,1757653.94768125,0.58941650390625,-0.4709625244140625,0.06976318359375,1757653.92869225,0.3132655024528503,0.0967252105474472,-1.297741651535034,1757653.92994325,137.7771301269531,75.74972534179688,-460.6809387207031,0
2023-02-13T13:26:28.446Z,380,1757653.96770025,0.8111572265625,-0.5153350830078125,0.0437469482421875,1757653.94868125,0.6875696182250977,0.07274877279996872,-1.316527247428894,1757653.94950525,138.7199096679688,75.95909118652344,-460.1878051757812,0
2023-02-13T13:26:28.472Z,381,1757653.98772025,0.820831298828125,-0.411773681640625,0.0235137939453125,1757653.96870025,0.06030648201704025,0.8190037608146667,-1.506892681121826,1757653.96909725,140.0142974853516,76.48541259765625,-459.8386840820312,0
2023-02-13T13:26:28.486Z,382,1757654.00773925,0.74481201171875,-0.34979248046875,0.059967041015625,1757653.98872025,-0.7008827328681946,1.236298799514771,-1.288880228996277,1757653.98865925,140.9631805419922,77.23719787597656,-459.7599792480469,0
2023-02-13T13:26:28.517Z,383,1757654.02772825,0.7548828125,-0.4129486083984375,0.0095672607421875,1757654.00873925,-0.8744500279426575,1.540238618850708,-0.4940294325351715,1757654.00822025,141.6562652587891,77.98074340820312,-459.8624877929688,0
2023-02-13T13:26:28.526Z,384,1757654.04774825,0.8463134765625,-0.5140380859375,-0.01751708984375,1757654.02872825,-0.9637386202812195,1.697044849395752,-0.05160220712423325,1757654.02778225,142.1103210449219,78.47282409667969,-459.8318786621094,0
2023-02-13T13:26:28.546Z,385,1757654.06776725,0.9097747802734375,-0.4687957763671875,-0.0560760498046875,1757654.04874825,-0.8645036220550537,1.876737356185913,-0.3772274553775787,1757654.04734425,142.4652709960938,78.93681335449219,-459.8854064941406,0
2023-02-13T13:26:28.566Z,386,1757654.08778725,0.89703369140625,-0.47906494140625,-0.06414794921875,1757654.06876725,-0.6787409782409668,1.358992457389832,-0.6194589734077454,1757654.06693625,143.3439788818359,78.89826965332031,-459.6832275390625,0
2023-02-13T13:26:28.592Z,387,1757654.10777625,0.7689208984375,-0.4734954833984375,-0.0161895751953125,1757654.08878725,-0.1737440973520279,0.5676541328430176,-0.6114401817321777,1757654.08649825,143.8822784423828,79.07586669921875,-459.6178283691406,0
2023-02-13T13:26:28.606Z,388,1757654.12779525,0.689544677734375,-0.597015380859375,-0.0551605224609375,1757654.10877625,0.2173661440610886,0.1776653379201889,-0.4363554716110229,1757654.10606025,144.3437652587891,79.09141540527344,-459.5962524414062,0
2023-02-13T13:26:28.633Z,389,1757654.14781525,0.7910614013671875,-0.737152099609375,-0.13934326171875,1757654.12879525,0.286052793264389,0.3330884873867035,-0.2592363655567169,1757654.12562225,144.6062469482422,79.33512878417969,-459.0567626953125,0
2023-02-13T13:26:28.646Z,390,1757654.16780425,0.8974151611328125,-0.655548095703125,-0.08544921875,1757654.14881525,0.07167179137468338,0.8621917366981506,-0.689413845539093,1757654.14518325,144.5668792724609,79.76321411132812,-459.05078125,0
2023-02-13T13:26:28.673Z,391,1757654.18782325,0.9838714599609375,-0.4914093017578125,0.0376739501953125,1757654.16880425,-0.1249930709600449,0.8816397190093994,-0.799243688583374,1757654.16477625,145.1767425537109,80.37226867675781,-458.6883544921875,0
2023-02-13T13:26:28.686Z,392,1757654.20784325,0.9554290771484375,-0.4757232666015625,0.10906982421875,1757654.18882325,0.0128987543284893,0.2127673923969269,-0.5065242052078247,1757654.18433725,145.4039001464844,81.27767944335938,-458.8137817382812,0
2023-02-13T13:26:28.712Z,393,1757654.22786325,0.872467041015625,-0.715728759765625,-0.0037841796875,1757654.20884325,0.4004323780536652,-0.2011035531759262,0.1185684576630592,1757654.20389925,145.1482391357422,81.73875427246094,-458.7775268554688,0
2023-02-13T13:26:28.726Z,394,1757654.24785225,0.7972259521484375,-0.8423004150390625,-0.1194000244140625,1757654.22886325,0.2429196983575821,0.2159437537193298,0.5021302103996277,1757654.22349125,144.5287780761719,82.04348754882812,-458.9031372070312,0
2023-02-13T13:26:28.753Z,395,1757654.26787125,0.8283233642578125,-0.712890625,0.012786865234375,1757654.24885225,-0.3107948899269104,1.383586525917053,0.2676695287227631,1757654.24305325,144.029296875,82.16036987304688,-458.9741516113281,0
2023-02-13T13:26:28.766Z,396,1757654.28789125,0.924530029296875,-0.574951171875,0.2550506591796875,1757654.26887125,-0.4215618968009949,1.88630735874176,0.02126427553594112,1757654.26264525,143.3775177001953,82.68960571289062,-459.2663879394531,0
2023-02-13T13:26:28.798Z,397,1757654.30791025,0.989715576171875,-0.661468505859375,0.38092041015625,1757654.28889125,-0.2338127642869949,1.039814233779907,0.2273894846439362,1757654.28220725,142.8305511474609,83.10734558105469,-459.8998413085938,0
2023-02-13T13:26:28.806Z,398,1757654.32789925,0.9119110107421875,-0.764434814453125,0.25384521484375,1757654.30891025,0.03943342715501785,-0.1774711906909943,0.4399672448635101,1757654.30176925,141.9141235351562,83.36483764648438,-461.0651550292969,0
2023-02-13T13:26:28.836Z,399,1757654.34791925,0.7857666015625,-0.775787353515625,0.132904052734375,1757654.32889925,-0.07598531246185303,-0.3753501772880554,0.4248010814189911,1757654.32133125,141.1580963134766,83.0902099609375,-462.8926391601562,0
2023-02-13T13:26:28.846Z,400,1757654.36793825,0.6465911865234375,-0.7071533203125,0.0909271240234375,1757654.34891925,-0.5911935567855835,0.5916944742202759,0.2360229194164276,1757654.34092325,140.1551361083984,83.25651550292969,-464.7437133789062,0
2023-02-13T13:26:28.873Z,401,1757654.38792725,0.7154083251953125,-0.6753692626953125,0.1804046630859375,1757654.36893825,-1.309008955955505,1.66854202747345,-0.3140237033367157,1757654.36048525,140.1952667236328,83.21902465820312,-467.5888061523438,0
2023-02-13T13:26:28.886Z,402,1757654.40794725,0.8388824462890625,-0.66058349609375,0.29791259765625,1757654.38892725,-1.133864521980286,1.999388694763184,-0.5616098046302795,1757654.38004725,141.1521453857422,83.79887390136719,-470.9544677734375,0
2023-02-13T13:26:28.912Z,403,1757654.42796625,0.909088134765625,-0.72137451171875,0.2869110107421875,1757654.40894725,-0.468329131603241,0.6882771849632263,-0.2209076136350632,1757654.39963925,143.4675903320312,83.51654052734375,-473.2938842773438,0
2023-02-13T13:26:28.926Z,404,1757654.44798625,0.7997589111328125,-0.7453765869140625,0.2290191650390625,1757654.42896625,-0.06781233847141266,-0.5641573667526245,-0.07423108816146851,1757654.43876225,148.2707672119141,80.73545837402344,-477.423828125,0
2023-02-13T13:26:28.953Z,405,1757654.46797525,0.74273681640625,-0.719024658203125,0.1611175537109375,1757654.44898625,-0.2144835293292999,-0.7519286274909973,-0.009368734434247017,1757654.45835525,150.6383209228516,80.18765258789062,-476.790771484375,0
2023-02-13T13:26:28.966Z,406,1757654.48799425,0.82440185546875,-0.7371978759765625,0.189849853515625,1757654.46897525,-0.8770763874053955,0.02887878566980362,-0.1422761827707291,1757654.47791625,153.2200622558594,80.52574157714844,-475.5912475585938,0
2023-02-13T13:26:28.993Z,407,1757654.50801425,1.004425048828125,-0.7527618408203125,0.2162322998046875,1757654.48899425,-1.316605567932129,0.9728788137435913,-0.5029126405715942,1757654.49747825,155.5480651855469,81.53755187988281,-472.8828735351562,0
2023-02-13T13:26:29.006Z,408,1757654.52803325,1.150436401367188,-0.66534423828125,0.2790985107421875,1757654.50901425,-1.419808626174927,1.341550827026367,-1.051596522331238,1757654.51707125,157.7485961914062,83.35653686523438,-470.1887512207031,0
2023-02-13T13:26:29.034Z,409,1757654.54802225,1.277206420898438,-0.569854736328125,0.30535888671875,1757654.54902225,-0.8369476199150085,0.3471110761165619,-1.269566416740417,1757654.53663225,158.4984588623047,84.62355041503906,-467.2176513671875,0
2023-02-13T13:26:29.046Z,410,1757654.56804225,1.341720581054688,-0.5861358642578125,0.2205810546875,1757654.54902225,-0.8369476199150085,0.3471110761165619,-1.269566416740417,1757654.55622525,158.9706115722656,85.35740661621094,-465.4177856445312,0
2023-02-13T13:26:29.073Z,411,1757654.58806125,1.379745483398438,-0.5950775146484375,0.272857666015625,1757654.56904225,-0.7312265038490295,0.321694403886795,-0.882567822933197,1757654.57578625,158.9022064208984,85.83122253417969,-464.6072387695312,0
2023-02-13T13:26:29.086Z,412,1757654.60805025,1.402740478515625,-0.6676025390625,0.2103729248046875,1757654.58906125,-0.3790053725242615,-0.005409678909927607,-0.4962446391582489,1757654.59537925,159.0294952392578,86.2767333984375,-464.0431823730469,0
2023-02-13T13:26:29.112Z,413,1757654.62807025,1.371047973632812,-0.6862640380859375,0.2372283935546875,1757654.60905025,-0.3577200472354889,0.1105494126677513,-0.2831832468509674,1757654.61494025,158.6661224365234,86.64634704589844,-463.4959106445312,0
2023-02-13T13:26:29.126Z,414,1757654.64809025,1.373672485351562,-0.72418212890625,0.2429656982421875,1757654.62907025,-0.2689797878265381,-0.03972956910729408,-0.19415083527565,1757654.63453325,158.5272064208984,86.63690185546875,-464.1503295898438,0
2023-02-13T13:26:29.153Z,415,1757654.66810925,1.390182495117188,-0.7248992919921875,0.26153564453125,1757654.64909025,-0.1766719818115234,-0.6103115677833557,-0.1287316083908081,1757654.65409425,158.6438446044922,86.57427978515625,-464.5357055664062,0
2023-02-13T13:26:29.166Z,416,1757654.68809825,1.366134643554688,-0.7462158203125,0.263916015625,1757654.66910925,0.04252855107188225,-1.110267043113708,0.04199858382344246,1757654.67365625,158.7007598876953,86.42424011230469,-466.24609375,0
2023-02-13T13:26:29.194Z,417,1757654.70811825,1.330169677734375,-0.738189697265625,0.2555389404296875,1757654.68909825,0.1484728306531906,-1.062959432601929,0.3550470471382141,1757654.69324825,158.0245208740234,85.97801208496094,-467.9545593261719,0
2023-02-13T13:26:29.206Z,418,1757654.72813725,1.291366577148438,-0.7343902587890625,0.2537841796875,1757654.70911825,0.007404919248074293,-0.6566377878189087,0.4254112243652344,1757654.71281025,157.4351959228516,85.32676696777344,-469.5244750976562,0
2023-02-13T13:26:29.233Z,419,1757654.74815725,1.308639526367188,-0.810577392578125,0.2227630615234375,1757654.72913725,-0.1860071569681168,-0.22719506919384,0.3037154078483582,1757654.73240325,156.6349182128906,85.20671081542969,-471.9053955078125,0
2023-02-13T13:26:29.246Z,420,1757654.76814625,1.29913330078125,-0.883819580078125,0.171051025390625,1757654.74915725,-0.2736219465732574,-0.3065583407878876,0.1680534482002258,1757654.75196425,155.0641479492188,84.86029052734375,-473.73095703125,0
2023-02-13T13:26:29.273Z,421,1757654.78816525,1.219192504882812,-0.8992156982421875,0.0840301513671875,1757654.76914625,-0.3185763955116272,-0.601845383644104,0.06180424615740776,1757654.77152625,152.7719879150391,85.14971923828125,-476.0374145507812,0
2023-02-13T13:26:29.286Z,422,1757654.80818525,1.207489013671875,-0.8588409423828125,0.010833740234375,1757654.78916525,-0.5095013380050659,-0.1725856214761734,-0.03903288766741753,1757654.79108825,150.2057647705078,86.23150634765625,-476.6832275390625,0
2023-02-13T13:26:29.313Z,423,1757654.82817425,1.225082397460938,-0.8327484130859375,-0.039703369140625,1757654.80918525,-0.6969556212425232,0.2699244320392609,-0.05726062506437302,1757654.81068025,148.1641998291016,87.11325073242188,-475.6676330566406,0
2023-02-13T13:26:29.326Z,424,1757654.84819325,1.172744750976562,-0.706817626953125,-0.068634033203125,1757654.82917425,-0.6336618661880493,0.4361115396022797,0.01247930619865656,1757654.83024225,146.2994079589844,88.12020874023438,-473.3243408203125,0
2023-02-13T13:26:29.353Z,425,1757654.86821325,1.161956787109375,-0.5948333740234375,-0.0456085205078125,1757654.84919325,-0.2553097903728485,0.4447889029979706,0.1272767335176468,1757654.84980425,145.7890167236328,88.49754333496094,-471.6305541992188,0
2023-02-13T13:26:29.366Z,426,1757654.888204375,1.166183471679688,-0.5426483154296875,-0.014434814453125,1757654.86921325,0.2945677042007446,0.3558638393878937,0.08897621184587479,1757654.869368375,145.7753601074219,88.0142822265625,-468.46923828125,0
2023-02-13T13:26:29.392Z,427,1757654.908193375,1.09552001953125,-0.519012451171875,0.0266571044921875,1757654.889204375,0.6608753800392151,-0.4067006409168243,0.01818938925862312,1757654.888930375,146.1162872314453,87.37557983398438,-466.3858032226562,0
2023-02-13T13:26:29.406Z,428,1757654.928213375,0.9682159423828125,-0.5189971923828125,0.0211639404296875,1757654.909193375,0.949436366558075,-1.415647745132446,0.05838261544704437,1757654.908522375,146.7079162597656,86.45599365234375,-464.7887878417969,0
2023-02-13T13:26:29.433Z,429,1757654.948232375,0.83221435546875,-0.5148162841796875,-0.027618408203125,1757654.929213375,0.9854103326797485,-1.702886939048767,0.1275052279233932,1757654.928084375,146.6345062255859,85.572265625,-464.3563232421875,0
2023-02-13T13:26:29.446Z,430,1757654.968252375,0.759765625,-0.486724853515625,-0.0413818359375,1757654.949232375,0.8983412384986877,-1.105715155601501,0.3266103267669678,1757654.947646375,146.7523956298828,84.70326232910156,-463.9456787109375,0
2023-02-13T13:26:29.473Z,431,1757654.988241375,0.7465057373046875,-0.4806976318359375,-0.012786865234375,1757654.969252375,0.9016035795211792,-0.481928288936615,0.7844705581665039,1757654.967238375,146.6391906738281,84.075927734375,-463.4844970703125,0
2023-02-13T13:26:29.486Z,432,1757655.008261375,0.7209930419921875,-0.51263427734375,0.0756072998046875,1757654.989241375,0.9442818164825439,-0.5811435580253601,1.259360671043396,1757654.986800375,146.3691253662109,83.07719421386719,-462.9837341308594,0
2023-02-13T13:26:29.513Z,433,1757655.028280375,0.6051788330078125,-0.580169677734375,0.1007843017578125,1757655.009261375,0.7824153900146484,-1.211272478103638,1.393878221511841,1757655.006361375,145.5959320068359,82.19271850585938,-462.704345703125,0
2023-02-13T13:26:29.526Z,434,1757655.048269375,0.533843994140625,-0.635162353515625,0.055694580078125,1757655.029280375,0.5433714389801025,-1.511456847190857,1.133835196495056,1757655.025923375,144.4919891357422,81.07467651367188,-462.8992919921875,0
2023-02-13T13:26:29.553Z,435,1757655.068289375,0.471588134765625,-0.5744476318359375,0.03326416015625,1757655.049269375,0.2158619910478592,-1.374783635139465,0.7666950225830078,1757655.045515375,143.8300476074219,80.41204833984375,-463.5007934570312,0
2023-02-13T13:26:29.566Z,436,1757655.088308375,0.4911346435546875,-0.5074615478515625,0.02740478515625,1757655.069289375,0.08258995413780212,-0.9312515258789062,0.6848955154418945,1757655.065077375,143.1841125488281,79.78970336914062,-463.4995727539062,0
2023-02-13T13:26:29.594Z,437,1757655.108328375,0.5706634521484375,-0.51654052734375,-0.010498046875,1757655.089308375,0.1895108073949814,-0.7550690174102783,0.8337803483009338,1757655.084639375,142.4658050537109,79.61802673339844,-463.7506713867188,0
2023-02-13T13:26:29.606Z,438,1757655.128317375,0.5404815673828125,-0.5032196044921875,-0.019317626953125,1757655.109328375,0.1482730954885483,-0.9377298951148987,0.958919882774353,1757655.104231375,141.6687316894531,79.36650085449219,-463.7351684570312,0
2023-02-13T13:26:29.633Z,439,1757655.148336375,0.472381591796875,-0.4915771484375,0.0001068115234375,1757655.129317375,0.002166481455788016,-1.228649854660034,0.9702553749084473,1757655.123793375,140.6627044677734,78.87406921386719,-464.1166381835938,0
2023-02-13T13:26:29.646Z,440,1757655.168356375,0.5145111083984375,-0.511474609375,0.0077056884765625,1757655.149336375,-0.1449023336172104,-1.229341745376587,0.801860511302948,1757655.143385375,139.6171417236328,78.27084350585938,-464.4359741210938,0
2023-02-13T13:26:29.672Z,441,1757655.188375375,0.56158447265625,-0.485565185546875,-0.053436279296875,1757655.169356375,-0.2949919700622559,-0.9522579908370972,0.4335053563117981,1757655.162947375,138.8713226318359,78.18798828125,-464.963134765625,0
2023-02-13T13:26:29.686Z,442,1757655.208364375,0.481353759765625,-0.39337158203125,-0.0533294677734375,1757655.189375375,-0.3745948970317841,-0.9026446342468262,0.2859925925731659,1757655.182478375,138.6937255859375,78.00674438476562,-465.5534057617188,0
2023-02-13T13:26:29.713Z,443,1757655.228384375,0.47314453125,-0.3377838134765625,-0.0227813720703125,1757655.209364375,-0.1062609255313873,-0.9882903099060059,0.3921038508415222,1757655.202071375,137.840576171875,78.0653076171875,-465.9818115234375,0
2023-02-13T13:26:29.727Z,444,1757655.248403375,0.4946746826171875,-0.3153533935546875,-0.0042724609375,1757655.229384375,0.2717641294002533,-1.006558537483215,0.2043794989585876,1757655.221632375,137.31494140625,78.08793640136719,-466.2572021484375,0
2023-02-13T13:26:29.753Z,445,1757655.268423375,0.5185546875,-0.2175140380859375,0.026611328125,1757655.249403375,0.5664024353027344,-1.017664909362793,0.02571281976997852,1757655.241194375,136.8371887207031,77.77816772460938,-466.1505737304688,0
2023-02-13T13:26:29.767Z,446,1757655.288412375,0.4550933837890625,-0.1753997802734375,-0.0080108642578125,1757655.269423375,0.7982891798019409,-1.154528498649597,-0.02673494070768356,1757655.260786375,136.6617126464844,77.76693725585938,-465.9181518554688,0
2023-02-13T13:26:29.789Z,447,1757655.308431375,0.221221923828125,-0.27386474609375,-0.0150909423828125,1757655.289412375,1.23218309879303,-1.918347120285034,0.7532159686088562,1757655.280348375,136.201416015625,77.53987121582031,-465.6783447265625,0
2023-02-13T13:26:29.806Z,448,1757655.328451375,0.165313720703125,-0.5833892822265625,-0.0608673095703125,1757655.309431375,1.920402526855469,-2.909297227859497,2.165411710739136,1757655.319502375,132.218017578125,75.69012451171875,-464.242431640625,0
2023-02-13T13:26:29.832Z,449,1757655.348440375,0.093414306640625,-0.8276214599609375,-0.1978759765625,1757655.329451375,1.885101795196533,-2.71235728263855,2.677940607070923,1757655.339064375,129.5639801025391,74.87396240234375,-463.2188110351562,0
2023-02-13T13:26:29.847Z,450,1757655.368460375,-0.1089019775390625,-0.92413330078125,-0.205657958984375,1757655.349440375,0.4392141103744507,-1.418288588523865,2.332330465316772,1757655.358626375,127.4022064208984,74.90802001953125,-463.125244140625,0
2023-02-13T13:26:29.872Z,451,1757655.388479375,-0.010345458984375,-0.9053955078125,-0.1338958740234375,1757655.369460375,-1.082969665527344,0.5215817093849182,1.593235015869141,1757655.378218375,126.3791046142578,75.42977905273438,-463.8644409179688,0
2023-02-13T13:26:29.887Z,452,1757655.408499375,0.241790771484375,-0.8111419677734375,-0.0864105224609375,1757655.389479375,-1.532746076583862,1.823541522026062,0.7024452090263367,1757655.397780375,126.4190063476562,75.96925354003906,-465.1724243164062,0
2023-02-13T13:26:29.917Z,453,1757655.428488375,0.5392608642578125,-0.7306365966796875,-0.050140380859375,1757655.409499375,-0.8540504574775696,1.555026173591614,-0.05551306158304214,1757655.417342375,126.8354339599609,75.961181640625,-465.4401245117188,0
2023-02-13T13:26:29.927Z,454,1757655.448507375,0.6171875,-0.6854400634765625,-0.04833984375,1757655.429488375,0.122382640838623,0.5477387309074402,-0.7966452240943909,1757655.436903375,127.990966796875,75.26397705078125,-465.2830810546875,0
2023-02-13T13:26:29.956Z,455,1757655.468527375,0.4907684326171875,-0.73016357421875,-0.039337158203125,1757655.449507375,0.8636764287948608,-0.5627554655075073,-0.9866399168968201,1757655.456465375,128.6212158203125,74.792724609375,-464.7207641601562,0
2023-02-13T13:26:29.967Z,456,1757655.488546375,0.3320465087890625,-0.756378173828125,-0.05731201171875,1757655.469527375,1.262337803840637,-0.9439787268638611,-0.8555660843849182,1757655.476057375,129.0519256591797,74.23037719726562,-463.9314880371094,0
2023-02-13T13:26:29.997Z,457,1757655.508535375,0.230804443359375,-0.7127685546875,-0.001220703125,1757655.489546375,1.000260710716248,-0.3709242641925812,-0.6874241828918457,1757655.495619375,129.3015594482422,74.30949401855469,-463.2462768554688,0
2023-02-13T13:26:30.007Z,458,1757655.528555375,0.503570556640625,-0.6953277587890625,0.130767822265625,1757655.509535375,0.3015385568141937,0.6164179444313049,-0.7767042517662048,1757655.515211375,130.1267242431641,74.69729614257812,-462.9455261230469,0
2023-02-13T13:26:30.032Z,459,1757655.548574375,0.6341094970703125,-0.6698455810546875,0.12359619140625,1757655.529555375,-0.2123426198959351,0.8034924864768982,-1.37941300868988,1757655.534773375,131.0402069091797,75.24588012695312,-462.9004516601562,0
2023-02-13T13:26:30.047Z,460,1757655.568563375,0.4815216064453125,-0.591064453125,0.154754638671875,1757655.549574375,-0.1569608598947525,-0.1828790009021759,-1.434486389160156,1757655.554335375,132.1283721923828,75.74710083007812,-463.044189453125,0
2023-02-13T13:26:30.077Z,461,1757655.588583375,0.3223114013671875,-0.5813751220703125,0.0453948974609375,1757655.569563375,0.5138811469078064,-0.6991098523139954,-1.120342016220093,1757655.573927375,132.8481903076172,75.62391662597656,-462.9777221679688,0
2023-02-13T13:26:30.087Z,462,1757655.608602375,0.252044677734375,-0.5674896240234375,-0.0365142822265625,1757655.589583375,0.6686076521873474,-0.5239124894142151,-0.9047368168830872,1757655.593489375,133.2385711669922,75.40875244140625,-462.7330322265625,0
2023-02-13T13:26:30.117Z,463,1757655.628622375,0.2486114501953125,-0.515625,-0.018585205078125,1757655.609602375,0.2889567017555237,0.1643202304840088,-0.9245408773422241,1757655.613051375,134.19482421875,75.50762939453125,-462.275390625,0
2023-02-13T13:26:30.127Z,464,1757655.648611375,0.3277740478515625,-0.4514007568359375,0.0331268310546875,1757655.629622375,-0.1166184917092323,1.019720077514648,-1.091054797172546,1757655.632643375,135.0539855957031,75.79660034179688,-462.5321960449219,0
2023-02-13T13:26:30.157Z,465,1757655.668630375,0.4446868896484375,-0.4830322265625,0.0511474609375,1757655.649611375,-0.03434359282255173,1.202374935150146,-1.159484386444092,1757655.652205375,136.0062866210938,75.96812438964844,-461.8398742675781,0
2023-02-13T13:26:30.167Z,466,1757655.688650375,0.7336883544921875,-0.4947357177734375,0.0631256103515625,1757655.669630375,0.2044135928153992,0.9353857636451721,-1.246360659599304,1757655.671767375,137.4341888427734,76.19287109375,-461.5111083984375,0
2023-02-13T13:26:30.191Z,467,1757655.708669375,0.85589599609375,-0.4148406982421875,0.046630859375,1757655.689650375,0.13267682492733,0.9158717393875122,-1.47179913520813,1757655.691328375,138.5161743164062,76.50770568847656,-460.9919738769531,0
2023-02-13T13:26:30.207Z,468,1757655.728658375,0.907440185546875,-0.3321685791015625,0.0565338134765625,1757655.709669375,0.1324802786111832,0.3642693161964417,-1.447054386138916,1757655.710921375,139.5950622558594,77.06901550292969,-460.895263671875,0
2023-02-13T13:26:30.236Z,469,1757655.748678375,0.76220703125,-0.41424560546875,-0.0327911376953125,1757655.729658375,0.4639487564563751,-0.2630643844604492,-1.082250595092773,1757655.730482375,140.7722778320312,77.20469665527344,-460.6976318359375,0
2023-02-13T13:26:30.247Z,470,1757655.768698375,0.649871826171875,-0.5057525634765625,-0.09686279296875,1757655.749678375,0.6132631301879883,-0.302788645029068,-0.7747372388839722,1757655.750075375,141.219970703125,77.38607788085938,-460.6249389648438,0
2023-02-13T13:26:30.277Z,471,1757655.788687375,0.7120208740234375,-0.4997711181640625,-0.1053619384765625,1757655.769698375,0.3526259660720825,0.4331309199333191,-0.8300186395645142,1757655.769637375,141.8155059814453,77.70339965820312,-459.8206787109375,0
2023-02-13T13:26:30.287Z,472,1757655.808706375,0.99017333984375,-0.4806976318359375,-0.05267333984375,1757655.789687375,-0.1951649636030197,1.250788807868958,-1.209596514701843,1757655.789229375,142.5118408203125,78.05831909179688,-459.649658203125,0
2023-02-13T13:26:30.312Z,473,1757655.828726375,1.0758056640625,-0.43865966796875,-0.0657806396484375,1757655.809706375,-0.5257713794708252,1.33879029750824,-1.226333737373352,1757655.808791375,143.6851348876953,78.84579467773438,-459.4661254882812,0
2023-02-13T13:26:30.327Z,474,1757655.848745375,1.012313842773438,-0.3859405517578125,-0.069793701171875,1757655.829726375,-0.4581760764122009,0.6834219694137573,-0.830711841583252,1757655.828383375,144.5536651611328,79.57943725585938,-459.4351196289062,0
2023-02-13T13:26:30.356Z,475,1757655.868734375,0.8350372314453125,-0.39166259765625,-0.109405517578125,1757655.849745375,0.1200712770223618,0.3223410248756409,-0.3033819794654846,1757655.847945375,144.9257202148438,79.80693054199219,-459.5579528808594,0
2023-02-13T13:26:30.367Z,476,1757655.888757917,0.70452880859375,-0.5779266357421875,-0.1373291015625,1757655.869734375,0.5756425261497498,0.4163783192634583,0.06008197739720345,1757655.867537375,145.2862854003906,79.69911193847656,-459.1823120117188,0
2023-02-13T13:26:30.397Z,477,1757655.908776917,0.783111572265625,-0.6794891357421875,-0.1352081298828125,1757655.889757917,0.3012831509113312,1.215964674949646,-0.04639865830540657,1757655.887102917,145.1508483886719,79.56719970703125,-458.7393188476562,0
2023-02-13T13:26:30.407Z,478,1757655.928796917,0.8484039306640625,-0.567718505859375,0.0380401611328125,1757655.909776917,-0.3260475993156433,2.143709421157837,-0.6071889996528625,1757655.906694917,145.4656372070312,79.99598693847656,-457.8157958984375,0
