loggingTime(txt),loggingSample(N),accelerometerTimestamp_sinceReboot(s),accelerometerAccelerationX(G),accelerometerAccelerationY(G),accelerometerAccelerationZ(G),gyroTimestamp_sinceReboot(s),gyroRotationX(rad/s),gyroRotationY(rad/s),gyroRotationZ(rad/s),magnetometerTimestamp_sinceReboot(s),magnetometerX(µT),magnetometerY(µT),magnetometerZ(µT),label(N)
2023-02-19T21:11:28.219Z,1,2066843.648036417,0.6946868896484375,-0.248779296875,-0.621612548828125,2066843.646053417,0.04450222104787827,-0.0814029797911644,-0.1778509616851807,2066843.619289417,191.0616607666016,113.1463012695312,-480.2446594238281,3
2023-02-19T21:11:28.227Z,2,2066843.668056417,0.656219482421875,-0.29547119140625,-0.6308746337890625,2066843.666072417,0.07209363579750061,-0.1559206247329712,-0.1910868734121323,2066843.639003417,190.8984069824219,113.2714385986328,-480.2222290039062,3
2023-02-19T21:11:28.247Z,3,2066843.688075417,0.6686859130859375,-0.2918701171875,-0.6581573486328125,2066843.686061417,0.07258845120668411,-0.1877954602241516,-0.2444683313369751,2066843.658687417,191.0544586181641,113.4646606445312,-480.2865600585938,3
2023-02-19T21:11:28.266Z,4,2066843.708064417,0.6768646240234375,-0.30712890625,-0.6628265380859375,2066843.706081417,0.07131172716617584,-0.231006845831871,-0.263231098651886,2066843.678401417,190.8173065185547,113.5171661376953,-480.5060119628906,3
2023-02-19T21:11:28.287Z,5,2066843.728084417,0.680816650390625,-0.3250274658203125,-0.6741943359375,2066843.726070417,0.03918575122952461,-0.2440789788961411,-0.2516735196113586,2066843.717830417,190.4779968261719,113.7562408447266,-480.8663024902344,3
2023-02-19T21:11:28.307Z,6,2066843.748104417,0.6603546142578125,-0.3230133056640625,-0.654449462890625,2066843.746089417,0.04632462188601494,-0.1826813966035843,-0.2199161201715469,2066843.737514417,190.4542236328125,113.8367614746094,-481.0323486328125,3
2023-02-19T21:11:28.327Z,7,2066843.768093417,0.64007568359375,-0.3255615234375,-0.640380859375,2066843.766109417,0.0611584298312664,-0.1194068193435669,-0.183223083615303,2066843.757228417,190.4403381347656,114.0526275634766,-480.9937438964844,3
2023-02-19T21:11:28.347Z,8,2066843.788112417,0.6584625244140625,-0.3234100341796875,-0.6448974609375,2066843.786098417,0.06593853980302811,-0.06458564847707748,-0.1836563795804977,2066843.776943417,190.1037445068359,114.1129913330078,-481.1626281738281,3
2023-02-19T21:11:28.367Z,9,2066843.808132417,0.6819915771484375,-0.3177642822265625,-0.66815185546875,2066843.806117417,0.06875909119844437,-0.06346152722835541,-0.1855064779520035,2066843.796657417,190.2326507568359,114.1082458496094,-481.0756225585938,3
2023-02-19T21:11:28.387Z,10,2066843.828121417,0.7053070068359375,-0.3149261474609375,-0.6921234130859375,2066843.826137417,0.06607648730278015,-0.1539181917905807,-0.1793340742588043,2066843.816341417,189.8507232666016,114.0792999267578,-481.2119750976562,3
2023-02-19T21:11:28.407Z,11,2066843.848140417,0.6979827880859375,-0.3102569580078125,-0.676605224609375,2066843.846126417,0.08390528708696365,-0.2115924060344696,-0.1719217002391815,2066843.836055417,189.9188690185547,114.3784942626953,-481.2976989746094,3
2023-02-19T21:11:28.427Z,12,2066843.868160417,0.6644287109375,-0.3176422119140625,-0.657623291015625,2066843.866146417,0.09654624760150909,-0.1461875736713409,-0.159521222114563,2066843.855770417,189.7971343994141,114.3226623535156,-481.6204223632812,3
2023-02-19T21:11:28.447Z,13,2066843.888149417,0.6640167236328125,-0.3170013427734375,-0.6750030517578125,2066843.886165417,0.1009015813469887,-0.0910811722278595,-0.1447286903858185,2066843.875484417,189.4995422363281,114.3655090332031,-481.5361328125,3
2023-02-19T21:11:28.467Z,14,2066843.908168417,0.68170166015625,-0.305999755859375,-0.68536376953125,2066843.906154417,0.1125763431191444,-0.0685202032327652,-0.1278543621301651,2066843.895168417,189.8350524902344,114.5091705322266,-481.6552429199219,3
2023-02-19T21:11:28.487Z,15,2066843.928188417,0.685791015625,-0.30023193359375,-0.6800079345703125,2066843.926174417,0.1303031444549561,-0.07491178810596466,-0.1130202934145927,2066843.914882417,189.678466796875,114.3633270263672,-481.5794982910156,3
2023-02-19T21:11:28.507Z,16,2066843.948177417,0.6727142333984375,-0.305999755859375,-0.6737060546875,2066843.946193417,0.1400372684001923,-0.06522587686777115,-0.1077696084976196,2066843.934596417,189.7328491210938,114.5612030029297,-481.7598876953125,3
2023-02-19T21:11:28.527Z,17,2066843.968196417,0.6795654296875,-0.30767822265625,-0.6769256591796875,2066843.966182417,0.1554633527994156,-0.06068997830152512,-0.09883736073970795,2066843.954311417,189.4658966064453,114.3844909667969,-482.0719604492188,3
2023-02-19T21:11:28.547Z,18,2066843.988185417,0.6793365478515625,-0.3098602294921875,-0.675079345703125,2066843.986202417,0.1688784956932068,-0.056841179728508,-0.1144765093922615,2066843.974025417,189.3971252441406,114.7734375,-482.0865173339844,3
2023-02-19T21:11:28.567Z,19,2066844.008205417,0.67034912109375,-0.3164215087890625,-0.6612396240234375,2066844.006221417,0.1787188798189163,-0.02389361523091793,-0.1106279790401459,2066843.993740417,189.4556579589844,114.3592071533203,-481.961181640625,3
2023-02-19T21:11:28.587Z,20,2066844.028224417,0.6713409423828125,-0.319244384765625,-0.6494140625,2066844.026210417,0.1741792559623718,0.01337040029466152,-0.1046302691102028,2066844.013423417,189.4869079589844,114.2763824462891,-481.9955444335938,3
2023-02-19T21:11:28.607Z,21,2066844.048213417,0.680938720703125,-0.3284149169921875,-0.6511688232421875,2066844.046230417,0.1627210080623627,-0.003368632402271032,-0.0837383046746254,2066844.033107417,189.2582550048828,114.4091186523438,-482.0692443847656,3
2023-02-19T21:11:28.627Z,22,2066844.068233417,0.690521240234375,-0.331634521484375,-0.6625823974609375,2066844.066219417,0.1436197459697723,-0.06372624635696411,-0.05012788251042366,2066844.052822417,189.4523468017578,114.2691497802734,-481.8592529296875,3
2023-02-19T21:11:28.647Z,23,2066844.088252417,0.6802215576171875,-0.321990966796875,-0.6514892578125,2066844.086238417,0.1352699398994446,-0.08412313461303711,-0.03978070244193077,2066844.072536417,189.1453094482422,114.2626953125,-482.0478515625,3
2023-02-19T21:11:28.667Z,24,2066844.108241417,0.667724609375,-0.3231964111328125,-0.640472412109375,2066844.106258417,0.1234708055853844,-0.07102970033884048,-0.01158688124269247,2066844.092220417,189.2198028564453,114.1598358154297,-482.0526123046875,3
2023-02-19T21:11:28.687Z,25,2066844.128261417,0.6638031005859375,-0.3223114013671875,-0.6485443115234375,2066844.126247417,0.1058135181665421,-0.06821980327367783,-0.00127964885905385,2066844.111934417,189.4153594970703,114.24658203125,-482.2559204101562,3
2023-02-19T21:11:28.707Z,26,2066844.148281417,0.6597900390625,-0.3236541748046875,-0.63916015625,2066844.146266417,0.09493184089660645,-0.007347128819674253,-0.01357173547148705,2066844.131648417,189.0018310546875,114.20947265625,-482.2444152832031,3
2023-02-19T21:11:28.727Z,27,2066844.168270417,0.6531524658203125,-0.3275909423828125,-0.6346282958984375,2066844.166286417,0.08251191675662994,0.009380718693137169,-0.01236878521740437,2066844.151332417,189.2150115966797,114.1371765136719,-482.2323608398438,3
2023-02-19T21:11:28.747Z,28,2066844.188289417,0.660003662109375,-0.3274383544921875,-0.633331298828125,2066844.186275417,0.06652549654245377,0.01319676171988249,-0.01139326952397823,2066844.171016417,189.0936431884766,113.8854217529297,-482.2548217773438,3
2023-02-19T21:11:28.767Z,29,2066844.208309417,0.6709747314453125,-0.327606201171875,-0.637420654296875,2066844.206294417,0.0540110357105732,0.02441373094916344,-0.02595117315649986,2066844.190730417,189.0227203369141,113.9455261230469,-482.145751953125,3
2023-02-19T21:11:28.787Z,30,2066844.228298417,0.6796417236328125,-0.3331756591796875,-0.6410980224609375,2066844.226314417,0.0315142497420311,0.02676237188279629,-0.03760064020752907,2066844.210445417,188.8303527832031,113.6695098876953,-482.0868530273438,3
2023-02-19T21:11:28.807Z,31,2066844.248317417,0.6853790283203125,-0.3336639404296875,-0.633636474609375,2066844.246303417,0.02665611170232296,0.01321140956133604,-0.04089044034481049,2066844.230159417,189.0037841796875,113.8205871582031,-482.29296875,3
2023-02-19T21:11:28.827Z,32,2066844.268337417,0.6810455322265625,-0.33721923828125,-0.6301422119140625,2066844.266323417,0.02306403964757919,0.02286163903772831,-0.03155952319502831,2066844.249843417,189.0788726806641,114.0399017333984,-482.2946166992188,3
2023-02-19T21:11:28.847Z,33,2066844.288326417,0.69927978515625,-0.3350372314453125,-0.6348876953125,2066844.286342417,0.02657568454742432,0.02575383335351944,-0.0234438069164753,2066844.269557417,188.9946899414062,113.8885192871094,-482.2073974609375,3
2023-02-19T21:11:28.867Z,34,2066844.308345417,0.703582763671875,-0.3289794921875,-0.624908447265625,2066844.306331417,0.03689277172088623,0.04278874397277832,-0.02044055983424187,2066844.289272417,189.3770904541016,113.8446502685547,-482.1322631835938,3
2023-02-19T21:11:28.887Z,35,2066844.328334417,0.6821746826171875,-0.332672119140625,-0.6124420166015625,2066844.326351417,0.03051396645605564,0.09051791578531265,0.0003174488083459437,2066844.308956417,188.9711303710938,113.8768768310547,-482.1073608398438,3
2023-02-19T21:11:28.907Z,36,2066844.348354417,0.67755126953125,-0.342803955078125,-0.6279754638671875,2066844.346370417,0.009667540900409222,0.1234982386231422,0.0361526794731617,2066844.328670417,189.3722534179688,113.6439056396484,-482.16015625,3
2023-02-19T21:11:28.927Z,37,2066844.368373417,0.6947174072265625,-0.3406219482421875,-0.6566314697265625,2066844.366359417,-0.01727885566651821,0.06788744032382965,0.06823951005935669,2066844.348354417,189.2279968261719,113.8496398925781,-482.0516357421875,3
2023-02-19T21:11:28.947Z,38,2066844.388362417,0.686309814453125,-0.3398895263671875,-0.6452789306640625,2066844.386379417,-0.04118179157376289,0.01831482537090778,0.0880797877907753,2066844.368068417,189.3141326904297,113.7688751220703,-482.0751953125,3
2023-02-19T21:11:28.967Z,39,2066844.408382417,0.653961181640625,-0.3384552001953125,-0.6357421875,2066844.406368417,-0.05339717864990234,0.04155436903238297,0.09375818073749542,2066844.387752417,189.2817840576172,113.5885162353516,-482.1529541015625,3
2023-02-19T21:11:28.987Z,40,2066844.428382875,0.6439971923828125,-0.3407440185546875,-0.6488494873046875,2066844.426368875,-0.06166496127843857,0.08354682475328445,0.08502807468175888,2066844.407447875,189.2588653564453,113.5105438232422,-481.8969116210938,3
2023-02-19T21:11:29.007Z,41,2066844.448371875,0.665374755859375,-0.3334503173828125,-0.6775054931640625,2066844.446388875,-0.05654503405094147,0.04245478287339211,0.06809595972299576,2066844.427131875,189.5860290527344,113.3597869873047,-481.7964477539062,3
2023-02-19T21:11:29.027Z,42,2066844.468391875,0.669281005859375,-0.332733154296875,-0.6772308349609375,2066844.466377875,-0.03299549967050552,-0.03035657480359077,0.05637672170996666,2066844.446846875,189.4242706298828,113.4285888671875,-481.9028930664062,3
2023-02-19T21:11:29.047Z,43,2066844.488410875,0.6640472412109375,-0.3308868408203125,-0.6631622314453125,2066844.486396875,-0.001568601815961301,-0.063798688352108,0.03261813148856163,2066844.466529875,189.2986297607422,113.3793487548828,-481.8093566894531,3
2023-02-19T21:11:29.067Z,44,2066844.508399875,0.6495819091796875,-0.3406219482421875,-0.651153564453125,2066844.506416875,0.03356648236513138,0.003593935864046216,0.01080843899399042,2066844.486244875,189.5473327636719,113.3499755859375,-481.8916015625,3
2023-02-19T21:11:29.087Z,45,2066844.528419875,0.6695098876953125,-0.33685302734375,-0.6534271240234375,2066844.526405875,0.07040013372898102,0.05211060494184494,-0.01100018713623285,2066844.505928875,189.4438323974609,113.3364105224609,-482.1029052734375,3
2023-02-19T21:11:29.107Z,46,2066844.548439875,0.6800079345703125,-0.3449859619140625,-0.6405487060546875,2066844.546424875,0.09360504895448685,0.07634297758340836,-0.02863324247300625,2066844.525642875,189.2539978027344,113.4091186523438,-481.78271484375,3
2023-02-19T21:11:29.127Z,47,2066844.568428875,0.68719482421875,-0.3493804931640625,-0.63958740234375,2066844.566444875,0.08969233185052872,0.05151991546154022,-0.00632127933204174,2066844.545326875,189.33447265625,113.2113800048828,-481.8575439453125,3
2023-02-19T21:11:29.147Z,48,2066844.588447875,0.6997833251953125,-0.3430938720703125,-0.6475982666015625,2066844.586433875,0.06726612150669098,-0.004787298385053873,0.02760845795273781,2066844.565010875,189.4862823486328,113.2020111083984,-481.7121276855469,3
2023-02-19T21:11:29.167Z,49,2066844.608467875,0.6984710693359375,-0.338287353515625,-0.64306640625,2066844.606452875,0.04592408239841461,-0.05742840468883514,0.06972555071115494,2066844.584724875,189.4550476074219,113.4169769287109,-481.6177368164062,3
2023-02-19T21:11:29.187Z,50,2066844.628456875,0.66851806640625,-0.3399658203125,-0.61358642578125,2066844.626472875,0.03870478644967079,-0.03809172660112381,0.09204204380512238,2066844.604438875,189.3308410644531,112.9150085449219,-481.6546020507812,3
2023-02-19T21:11:29.207Z,51,2066844.648475875,0.6492156982421875,-0.3566436767578125,-0.6015167236328125,2066844.646461875,0.02649392560124397,0.03622085601091385,0.09508390724658966,2066844.624122875,189.4348449707031,113.0411224365234,-481.7232971191406,3
2023-02-19T21:11:29.227Z,52,2066844.668464875,0.6532745361328125,-0.365631103515625,-0.619537353515625,2066844.666481875,0.01033466309309006,0.06470070034265518,0.08205891400575638,2066844.643836875,189.6925811767578,112.8784637451172,-481.7819213867188,3
2023-02-19T21:11:29.247Z,53,2066844.688484875,0.6696624755859375,-0.3607025146484375,-0.6396331787109375,2066844.686500875,-0.005643238313496113,0.006187322083860636,0.07162465155124664,2066844.663551875,189.5154876708984,112.7815093994141,-481.8276977539062,3
2023-02-19T21:11:29.267Z,54,2066844.708503875,0.6766510009765625,-0.350860595703125,-0.6414947509765625,2066844.706489875,-0.01823652721941471,-0.05915546417236328,0.062977634370327,2066844.683265875,189.6609344482422,112.8235931396484,-481.6887817382812,3
2023-02-19T21:11:29.287Z,55,2066844.728492875,0.6631011962890625,-0.347381591796875,-0.6365966796875,2066844.726509875,-0.02384647727012634,-0.06879770755767822,0.04779335483908653,2066844.702980875,189.5409393310547,112.8036804199219,-481.81982421875,3
2023-02-19T21:11:29.307Z,56,2066844.748512875,0.646148681640625,-0.3432464599609375,-0.6226043701171875,2066844.746498875,-0.0112824821844697,-0.005858688149601221,0.03484772890806198,2066844.722663875,189.4628143310547,112.9582214355469,-481.633544921875,3
2023-02-19T21:11:29.327Z,57,2066844.768531875,0.6546630859375,-0.3425140380859375,-0.6125335693359375,2066844.766517875,0.004287156742066145,0.05350929871201515,0.02288667298853397,2066844.742378875,189.3628234863281,112.6536712646484,-481.9757995605469,3
2023-02-19T21:11:29.347Z,58,2066844.788520875,0.67596435546875,-0.3468780517578125,-0.614532470703125,2066844.786537875,0.00749173853546381,0.04062306135892868,0.009461412206292152,2066844.762062875,189.312255859375,112.7287445068359,-481.71533203125,3
2023-02-19T21:11:29.367Z,59,2066844.808540875,0.6811370849609375,-0.3509521484375,-0.623992919921875,2066844.806526875,-0.0129698608070612,0.01152669358998537,0.004999286029487848,2066844.781776875,189.4169921875,112.7344665527344,-481.8229370117188,3
2023-02-19T21:11:29.387Z,60,2066844.828559875,0.6665496826171875,-0.3575286865234375,-0.6233978271484375,2066844.826545875,-0.03873993828892708,0.02589577995240688,0.002240783767774701,2066844.801490875,189.5027465820312,112.5701904296875,-481.86669921875,3
2023-02-19T21:11:29.407Z,61,2066844.848548875,0.6663818359375,-0.3606719970703125,-0.626068115234375,2066844.846565875,-0.06475422531366348,0.01426708605140448,0.02122539281845093,2066844.821174875,189.6920318603516,112.8007965087891,-481.8255310058594,3
2023-02-19T21:11:29.427Z,62,2066844.868568875,0.6681976318359375,-0.3634185791015625,-0.633453369140625,2066844.866554875,-0.07864980399608612,-0.01895318552851677,0.05041257292032242,2066844.840888875,189.6222076416016,112.6265411376953,-482.0302124023438,3
2023-02-19T21:11:29.447Z,63,2066844.888587875,0.6697845458984375,-0.35546875,-0.64031982421875,2066844.886573875,-0.07603245228528976,-0.05278358608484268,0.05601027235388756,2066844.860603875,189.6983184814453,112.5442047119141,-481.8706665039062,3
2023-02-19T21:11:29.467Z,64,2066844.908576875,0.6608734130859375,-0.344879150390625,-0.6331787109375,2066844.906593875,-0.05300436168909073,-0.03347300365567207,0.04290219396352768,2066844.880287875,189.6132049560547,112.6178894042969,-481.5158081054688,3
2023-02-19T21:11:29.487Z,65,2066844.928596875,0.6572723388671875,-0.3433990478515625,-0.6252288818359375,2066844.926582875,-0.03512682765722275,0.004250937607139349,0.02111327461898327,2066844.900001875,189.7831115722656,112.8353576660156,-481.8182067871094,3
2023-02-19T21:11:29.507Z,66,2066844.948616875,0.6582489013671875,-0.347503662109375,-0.63165283203125,2066844.946601875,-0.01888687163591385,0.0308415349572897,-0.002686330582946539,2066844.919715875,189.4541320800781,112.5483245849609,-481.8150634765625,3
2023-02-19T21:11:29.527Z,67,2066844.968605875,0.66424560546875,-0.3564300537109375,-0.6391143798828125,2066844.966621875,-0.02308774180710316,0.03485172241926193,-0.01359437219798565,2066844.939430875,189.4673919677734,112.6189575195312,-481.8273010253906,3
2023-02-19T21:11:29.547Z,68,2066844.988624875,0.66680908203125,-0.3625335693359375,-0.642822265625,2066844.986610875,-0.03447914868593216,0.004915928933769464,-0.01526310853660107,2066844.959114875,189.8037261962891,112.5902099609375,-481.8767395019531,3
2023-02-19T21:11:29.567Z,69,2066845.008613875,0.67022705078125,-0.36602783203125,-0.6416168212890625,2066845.006629875,-0.0490461066365242,-0.02221129648387432,-0.002356897573918104,2066844.998542875,189.7177734375,112.7892761230469,-481.7302856445312,3
2023-02-19T21:11:29.587Z,70,2066845.028633875,0.6750335693359375,-0.3627471923828125,-0.645782470703125,2066845.026649875,-0.05584142729640007,-0.04266783595085144,-0.005485313013195992,2066845.018257875,189.7021179199219,112.4108428955078,-481.9596862792969,3
2023-02-19T21:11:29.607Z,71,2066845.048652875,0.6661376953125,-0.355194091796875,-0.6280517578125,2066845.046638875,-0.04445241764187813,-0.01102841645479202,-0.006729009095579386,2066845.037940875,189.5021820068359,112.4596557617188,-481.6200561523438,3
2023-02-19T21:11:29.627Z,72,2066845.068641875,0.6639862060546875,-0.3450775146484375,-0.6155853271484375,2066845.066658875,-0.02493570931255817,0.03420404344797134,-0.01584128104150295,2066845.057655875,189.6580047607422,112.4114532470703,-481.89892578125,3
2023-02-19T21:11:29.647Z,73,2066845.088661875,0.6776580810546875,-0.3458251953125,-0.619293212890625,2066845.086647875,-0.01549453753978014,0.04848364740610123,-0.01347666047513485,2066845.077369875,189.7201538085938,112.5594940185547,-481.8414001464844,3
2023-02-19T21:11:29.667Z,74,2066845.108680875,0.6959075927734375,-0.341339111328125,-0.617950439453125,2066845.106666875,-0.01813879050314426,0.0388169027864933,-0.02910675294697285,2066845.097053875,189.7823028564453,112.7347259521484,-481.862548828125,3
2023-02-19T21:11:29.687Z,75,2066845.128669875,0.6836700439453125,-0.3464202880859375,-0.6175689697265625,2066845.126686875,-0.03837641701102257,0.03044712170958519,-0.03605387359857559,2066845.116767875,189.7530059814453,112.6880645751953,-481.6243286132812,3
2023-02-19T21:11:29.707Z,76,2066845.148689875,0.662841796875,-0.3531646728515625,-0.6144561767578125,2066845.146675875,-0.0571005716919899,0.04560263827443123,-0.02137319929897785,2066845.136482875,189.8958892822266,112.7742614746094,-481.7692260742188,3
2023-02-19T21:11:29.727Z,77,2066845.168708875,0.6620025634765625,-0.358001708984375,-0.6273193359375,2066845.166694875,-0.0728481113910675,0.03307885676622391,-0.002402703976258636,2066845.156166875,189.7730255126953,112.8602752685547,-481.71728515625,3
2023-02-19T21:11:29.747Z,78,2066845.188697875,0.672454833984375,-0.3584747314453125,-0.64532470703125,2066845.186714875,-0.08460276573896408,-0.03276779875159264,0.01108567416667938,2066845.175880875,189.9028930664062,112.9210662841797,-481.6344604492188,3
2023-02-19T21:11:29.767Z,79,2066845.208717875,0.6676177978515625,-0.35321044921875,-0.6438140869140625,2066845.206703875,-0.0821814239025116,-0.06618860363960266,0.01954014599323273,2066845.195594875,189.7245941162109,113.0654602050781,-481.4371948242188,3
2023-02-19T21:11:29.787Z,80,2066845.228736875,0.6587066650390625,-0.3483428955078125,-0.62969970703125,2066845.226722875,-0.06742244958877563,-0.05507710203528404,0.003436543047428131,2066845.215278875,189.8113861083984,112.7903289794922,-481.798583984375,3
2023-02-19T21:11:29.807Z,81,2066845.248725875,0.66265869140625,-0.334716796875,-0.6277313232421875,2066845.246742875,-0.04607588052749634,-0.005810751114040613,-0.0255477037280798,2066845.234992875,189.8767852783203,113.0369873046875,-481.6074829101562,3
2023-02-19T21:11:29.827Z,82,2066845.268745875,0.683868408203125,-0.32025146484375,-0.6340789794921875,2066845.266731875,-0.02267069183290005,0.01923707686364651,-0.06417179852724075,2066845.254707875,189.5947723388672,112.9501190185547,-481.7619018554688,3
2023-02-19T21:11:29.848Z,83,2066845.288764875,0.6913299560546875,-0.3208770751953125,-0.637359619140625,2066845.286750875,-0.01335095893591642,0.006897054612636566,-0.08155584335327148,2066845.274391875,189.7426147460938,113.1886749267578,-481.535400390625,3
2023-02-19T21:11:29.867Z,84,2066845.308753875,0.6729278564453125,-0.3402862548828125,-0.62896728515625,2066845.306770875,-0.02477272413671017,0.02034415304660797,-0.07370218634605408,2066845.294105875,189.8798065185547,113.1502685546875,-481.6156005859375,3
2023-02-19T21:11:29.887Z,85,2066845.328773875,0.6680145263671875,-0.3572235107421875,-0.6339111328125,2066845.326759875,-0.03792820870876312,0.02995363809168339,-0.05335190519690514,2066845.313789875,189.7245330810547,113.2024993896484,-481.6352844238281,3
2023-02-19T21:11:29.907Z,86,2066845.348762875,0.669189453125,-0.365753173828125,-0.6413726806640625,2066845.346778875,-0.04828444123268127,0.009329319931566715,-0.03420830518007278,2066845.333503875,189.7229461669922,113.3694152832031,-481.5828247070312,3
2023-02-19T21:11:29.927Z,87,2066845.368782875,0.66583251953125,-0.3672637939453125,-0.64971923828125,2066845.366798875,-0.04588839411735535,-0.02120515331625938,-0.0233862828463316,2066845.353218875,189.6634368896484,113.1949768066406,-481.5872802734375,3
2023-02-19T21:11:29.947Z,88,2066845.388801875,0.67364501953125,-0.3535919189453125,-0.6562652587890625,2066845.386787875,-0.02886893227696419,-0.06047879159450531,-0.02249918319284916,2066845.372901875,189.7079162597656,113.21923828125,-481.6504516601562,3
2023-02-19T21:11:29.967Z,89,2066845.408790875,0.67236328125,-0.3409576416015625,-0.647857666015625,2066845.406806875,-0.001496163895353675,-0.05691974237561226,-0.0431557260453701,2066845.392616875,189.6445007324219,113.3898468017578,-481.397705078125,3
2023-02-19T21:11:29.987Z,90,2066845.428824375,0.6685638427734375,-0.3382110595703125,-0.641082763671875,2066845.426809375,0.01649561896920204,-0.0166546106338501,-0.05912510678172112,2066845.412344375,189.5761108398438,113.4163360595703,-481.7090759277344,3
2023-02-19T21:11:30.008Z,91,2066845.448843375,0.6872711181640625,-0.3354034423828125,-0.6392669677734375,2066845.446829375,0.03377420827746391,0.01670094951987267,-0.06920517235994339,2066845.432058375,189.6483917236328,113.3639068603516,-481.603271484375,3
2023-02-19T21:11:30.028Z,92,2066845.468832375,0.704833984375,-0.337890625,-0.6395263671875,2066845.466849375,0.03719983249902725,-0.0174998976290226,-0.07572538405656815,2066845.451742375,189.4658508300781,113.4761810302734,-481.7000732421875,3
2023-02-19T21:11:30.048Z,93,2066845.488852375,0.6939697265625,-0.34130859375,-0.621978759765625,2066845.486838375,0.04127420112490654,-0.01971777901053429,-0.07132770866155624,2066845.471457375,189.7176513671875,113.15478515625,-481.4803466796875,3
2023-02-19T21:11:30.067Z,94,2066845.508871375,0.6796875,-0.345428466796875,-0.6111907958984375,2066845.506857375,0.04135116934776306,0.0345744900405407,-0.05303525552153587,2066845.491171375,189.4781036376953,113.2709197998047,-481.8221130371094,3
2023-02-19T21:11:30.087Z,95,2066845.528860375,0.683349609375,-0.3516693115234375,-0.62774658203125,2066845.526877375,0.01247025188058615,0.01850550808012486,-0.02584384754300117,2066845.510885375,189.5967102050781,113.3456115722656,-481.384033203125,3
2023-02-19T21:11:30.107Z,96,2066845.548880375,0.6865997314453125,-0.35162353515625,-0.6376495361328125,2066845.546866375,-0.005258411634713411,-0.02371624857187271,0.0004838963795918971,2066845.530600375,189.7282867431641,113.4690399169922,-481.7271728515625,3
2023-02-19T21:11:30.127Z,97,2066845.568899375,0.6707763671875,-0.3447418212890625,-0.6284637451171875,2066845.566885375,-0.003038666676729918,-0.03607597947120667,-0.00171241257339716,2066845.550314375,189.4758148193359,113.5163269042969,-481.6361083984375,3
2023-02-19T21:11:30.147Z,98,2066845.588888375,0.65826416015625,-0.343719482421875,-0.6240386962890625,2066845.586905375,0.006297310814261436,-0.02785586565732956,-0.01402260828763247,2066845.569998375,189.4362487792969,113.3906555175781,-481.6064453125,3
2023-02-19T21:11:30.167Z,99,2066845.608908375,0.661895751953125,-0.3402557373046875,-0.634857177734375,2066845.606894375,0.01436189468950033,-0.02669712528586388,-0.03583868965506554,2066845.589712375,189.6385650634766,113.2063751220703,-481.6825256347656,3
2023-02-19T21:11:30.187Z,100,2066845.628927375,0.6726226806640625,-0.3292236328125,-0.635284423828125,2066845.626913375,0.02330159395933151,-0.02322569489479065,-0.07120972871780396,2066845.609427375,189.6458129882812,113.19873046875,-481.5887451171875,3
2023-02-19T21:11:30.208Z,101,2066845.648916375,0.6680755615234375,-0.31683349609375,-0.61358642578125,2066845.646933375,0.04688841104507446,0.01083853282034397,-0.1201402544975281,2066845.629141375,189.4878540039062,113.4900970458984,-481.603271484375,3
2023-02-19T21:11:30.228Z,102,2066845.668936375,0.6617431640625,-0.3122711181640625,-0.5929107666015625,2066845.666922375,0.07466065883636475,0.1026379615068436,-0.1734037399291992,2066845.648825375,189.4821929931641,113.2380676269531,-481.5083923339844,3
2023-02-19T21:11:30.248Z,103,2066845.688925375,0.6731414794921875,-0.3289947509765625,-0.6019287109375,2066845.686941375,0.07173676788806915,0.1511085629463196,-0.2227041870355606,2066845.668539375,189.4120483398438,113.646240234375,-481.6112060546875,3
2023-02-19T21:11:30.267Z,104,2066845.708944375,0.6759185791015625,-0.3498077392578125,-0.6140899658203125,2066845.706961375,0.05172764137387276,0.1511194705963135,-0.2613700926303864,2066845.688254375,189.4293518066406,113.5792846679688,-481.4781799316406,3
2023-02-19T21:11:30.287Z,105,2066845.728964375,0.6507720947265625,-0.3540496826171875,-0.603851318359375,2066845.726950375,0.04984478652477264,0.1562196910381317,-0.2830977439880371,2066845.707968375,189.450927734375,113.8319549560547,-481.6183471679688,3
2023-02-19T21:11:30.308Z,106,2066845.748953375,0.6371307373046875,-0.3569793701171875,-0.5978546142578125,2066845.746969375,0.05788087472319603,0.1636259406805038,-0.2971656322479248,2066845.727652375,189.7144165039062,113.4989471435547,-481.39013671875,3
2023-02-19T21:11:30.328Z,107,2066845.768973375,0.639190673828125,-0.3431549072265625,-0.6055908203125,2066845.766958375,0.0847814679145813,0.1592125594615936,-0.3579887747764587,2066845.747366375,189.6207885742188,113.8081512451172,-481.1327514648438,3
2023-02-19T21:11:30.347Z,108,2066845.788992375,0.615325927734375,-0.3285675048828125,-0.5933074951171875,2066845.786978375,0.1235837265849113,0.2184130251407623,-0.4460922479629517,2066845.767080375,189.8595886230469,113.8835906982422,-481.1924438476562,3
2023-02-19T21:11:30.367Z,109,2066845.808981375,0.587493896484375,-0.3097686767578125,-0.5740203857421875,2066845.806997375,0.169645756483078,0.3552590310573578,-0.5715279579162598,2066845.786795375,189.8879089355469,113.8874206542969,-480.9452209472656,3
2023-02-19T21:11:30.387Z,110,2066845.829001375,0.5856475830078125,-0.305206298828125,-0.58941650390625,2066845.826986375,0.2162060737609863,0.4006145298480988,-0.6192896366119385,2066845.806509375,190.0339202880859,114.2271270751953,-480.8755798339844,3
2023-02-19T21:11:30.408Z,111,2066845.849020375,0.67596435546875,-0.2987518310546875,-0.6246337890625,2066845.847006375,0.2368828505277634,0.2364258468151093,-0.6687775254249573,2066845.826224375,189.95703125,114.9278564453125,-480.6974792480469,3
2023-02-19T21:11:30.427Z,112,2066845.869009375,0.6883544921875,-0.2861785888671875,-0.618865966796875,2066845.867026375,0.2537648975849152,0.07833687961101532,-0.7503224611282349,2066845.845938375,190.1697540283203,114.8863372802734,-480.4840698242188,3
2023-02-19T21:11:30.448Z,113,2066845.889029375,0.6110382080078125,-0.272735595703125,-0.5587005615234375,2066845.887015375,0.2429727017879486,0.104070745408535,-0.7982577681541443,2066845.865622375,190.06640625,115.3742980957031,-480.374267578125,3
2023-02-19T21:11:30.468Z,114,2066845.909048375,0.5578765869140625,-0.23419189453125,-0.467498779296875,2066845.907034375,0.3228379786014557,0.568745493888855,-0.9645196795463562,2066845.885336375,190.1357727050781,115.7525939941406,-480.3813171386719,3
2023-02-19T21:11:30.488Z,115,2066845.929037375,0.6169281005859375,-0.23486328125,-0.524383544921875,2066845.927054375,0.4091997444629669,0.8851548433303833,-1.105146884918213,2066845.905050375,190.2176971435547,116.3879547119141,-480.3612060546875,3
2023-02-19T21:11:30.508Z,116,2066845.949057375,0.67694091796875,-0.233612060546875,-0.5610809326171875,2066845.947043375,0.5611639618873596,1.006824254989624,-1.172898530960083,2066845.924765375,190.5506286621094,116.8382568359375,-479.8153686523438,3
2023-02-19T21:11:30.528Z,117,2066845.969076375,0.7097625732421875,-0.1917877197265625,-0.536285400390625,2066845.967062375,0.7274749279022217,1.153757333755493,-1.294489860534668,2066845.944449375,190.8395385742188,117.1460418701172,-479.187255859375,3
2023-02-19T21:11:30.548Z,118,2066845.989065375,0.669097900390625,-0.161651611328125,-0.4676055908203125,2066845.987082375,0.8777582049369812,1.32213032245636,-1.455657482147217,2066845.964163375,191.1309356689453,117.7187194824219,-478.7801818847656,3
2023-02-19T21:11:30.568Z,119,2066846.009085375,0.5789337158203125,-0.124542236328125,-0.3476715087890625,2066846.007071375,1.113099813461304,1.900189876556396,-1.645382165908813,2066845.983847375,191.6301727294922,118.1976928710938,-478.3026733398438,3
2023-02-19T21:11:30.588Z,120,2066846.029074375,0.59869384765625,-0.0905303955078125,-0.3122100830078125,2066846.027090375,1.39325749874115,2.672511339187622,-1.8511563539505,2066846.003561375,191.7511138916016,118.8519287109375,-477.31494140625,3
2023-02-19T21:11:30.608Z,121,2066846.049093375,0.7044525146484375,-0.0899810791015625,-0.3451080322265625,2066846.047110375,1.616130828857422,3.225000381469727,-2.037510871887207,2066846.023276375,192.5791473388672,119.6241302490234,-476.141357421875,3
2023-02-19T21:11:30.628Z,122,2066846.069113375,0.802764892578125,-0.0442657470703125,-0.3214874267578125,2066846.067099375,1.848678231239319,3.696627855300903,-2.19894814491272,2066846.042959375,193.0708618164062,120.3628540039062,-474.5197143554688,3
2023-02-19T21:11:30.648Z,123,2066846.089102375,0.78955078125,0.0038604736328125,-0.22088623046875,2066846.087118375,2.12079930305481,4.450292587280273,-2.368691682815552,2066846.062674375,194.1085968017578,121.244384765625,-472.583740234375,3
2023-02-19T21:11:30.668Z,124,2066846.109121375,0.76239013671875,0.0208282470703125,-0.054931640625,2066846.107138375,2.412531137466431,5.227382659912109,-2.494518518447876,2066846.082388375,194.8218078613281,122.2963409423828,-469.9569091796875,3
2023-02-19T21:11:30.688Z,125,2066846.129141375,0.7951812744140625,-0.0139923095703125,0.0206298828125,2066846.127127375,2.55455493927002,6.003827095031738,-2.574492216110229,2066846.102102375,195.6828155517578,123.3199462890625,-467.1870727539062,3
2023-02-19T21:11:30.708Z,126,2066846.149130375,0.879150390625,-0.0527191162109375,0.122894287109375,2066846.147146375,2.620046615600586,6.701852321624756,-2.572777986526489,2066846.121786375,195.7930603027344,124.7372283935547,-463.9172973632812,3
2023-02-19T21:11:30.728Z,127,2066846.169150375,0.9423980712890625,-0.046783447265625,0.244140625,2066846.167135375,2.724268913269043,7.188694953918457,-2.532494783401489,2066846.141501375,196.136474609375,126.4093780517578,-460.3772277832031,3
2023-02-19T21:11:30.748Z,128,2066846.189169375,0.989349365234375,-0.0330963134765625,0.33203125,2066846.187155375,2.865261793136597,7.108974933624268,-2.284774303436279,2066846.161184375,195.5220184326172,128.2758026123047,-456.1975708007812,3
2023-02-19T21:11:30.768Z,129,2066846.209158375,1.07232666015625,0.0108489990234375,0.3999786376953125,2066846.207174375,2.931775569915771,6.253758430480957,-2.037825584411621,2066846.180899375,194.4356231689453,129.7576446533203,-452.2070922851562,3
2023-02-19T21:11:30.788Z,130,2066846.229178375,1.104080200195312,0.0519561767578125,0.45062255859375,2066846.227163375,2.929605722427368,4.791858673095703,-1.950579047203064,2066846.200583375,193.0059967041016,132.1828308105469,-448.5687255859375,3
2023-02-19T21:11:30.808Z,131,2066846.249197375,0.9819793701171875,0.1019744873046875,0.5064849853515625,2066846.247183375,2.88300895690918,3.330003023147583,-1.977360367774963,2066846.220266375,191.0305328369141,133.6616821289062,-446.1604614257812,3
2023-02-19T21:11:30.828Z,132,2066846.269186375,0.82403564453125,0.1644744873046875,0.5680084228515625,2066846.267203375,2.779488563537598,2.662338495254517,-1.951655030250549,2066846.239981375,189.2899475097656,135.6332702636719,-445.0584106445312,3
2023-02-19T21:11:30.848Z,133,2066846.289206375,0.7340087890625,0.284637451171875,0.5964813232421875,2066846.287192375,2.783345460891724,2.485883235931396,-2.099807739257812,2066846.259665375,187.4830169677734,137.4297027587891,-444.740966796875,3
2023-02-19T21:11:30.867Z,134,2066846.309225375,0.603973388671875,0.3863677978515625,0.623199462890625,2066846.307211375,2.874914407730103,2.792944192886353,-2.293957471847534,2066846.299063375,183.6028289794922,141.3008728027344,-445.4282531738281,3
2023-02-19T21:11:30.888Z,135,2066846.329214375,0.499359130859375,0.465087890625,0.670928955078125,2066846.327231375,2.937782049179077,3.1053307056427,-2.348858594894409,2066846.318747375,181.6455230712891,143.2996978759766,-445.9656372070312,3
2023-02-19T21:11:30.908Z,136,2066846.349234375,0.523406982421875,0.540679931640625,0.6691436767578125,2066846.347220375,2.942652702331543,2.931215047836304,-2.284156084060669,2066846.338461375,179.2962951660156,144.8062438964844,-446.4969482421875,3
2023-02-19T21:11:30.928Z,137,2066846.369253375,0.5447998046875,0.635498046875,0.6627960205078125,2066846.367239375,2.899160623550415,2.297682046890259,-2.164634943008423,2066846.358145375,177.4419097900391,146.5477447509766,-447.537109375,3
2023-02-19T21:11:30.948Z,138,2066846.389242375,0.51177978515625,0.7218780517578125,0.643280029296875,2066846.387259375,2.812331676483154,1.462326884269714,-2.155452013015747,2066846.377859375,175.0383758544922,147.7997894287109,-448.7015991210938,3
2023-02-19T21:11:30.968Z,139,2066846.409262375,0.44818115234375,0.7425994873046875,0.6235809326171875,2066846.407248375,2.782297849655151,0.6481534838676453,-2.117520809173584,2066846.397574375,173.1011810302734,149.1223907470703,-450.81591796875,3
2023-02-19T21:11:30.988Z,140,2066846.4292305,0.3625030517578125,0.7437744140625,0.591522216796875,2066846.4272465,2.659248352050781,-0.01739736646413803,-2.023768424987793,2066846.4172365,171.1670989990234,149.8888702392578,-452.5200805664062,3
2023-02-19T21:11:31.008Z,141,2066846.4492495,0.282196044921875,0.75823974609375,0.5855712890625,2066846.4472665,2.366477012634277,-0.3974077999591827,-1.837700724601746,2066846.4369515,169.3189544677734,150.8735809326172,-454.998291015625,3
2023-02-19T21:11:31.028Z,142,2066846.4692695,0.235992431640625,0.8084259033203125,0.5821990966796875,2066846.4672555,2.100505352020264,-0.6658912301063538,-1.644729375839233,2066846.4566655,167.7573699951172,151.53857421875,-456.9829406738281,3
2023-02-19T21:11:31.048Z,143,2066846.4892585,0.2425994873046875,0.8599700927734375,0.5503387451171875,2066846.4872745,1.875628113746643,-0.8629182577133179,-1.565351963043213,2066846.4763495,166.3957824707031,152.0423278808594,-458.727294921875,3
2023-02-19T21:11:31.068Z,144,2066846.5092775,0.2464447021484375,0.86053466796875,0.497222900390625,2066846.5072635,1.607673048973083,-1.246718406677246,-1.439702749252319,2066846.4960635,164.6000671386719,152.42626953125,-460.5676879882812,3
2023-02-19T21:11:31.088Z,145,2066846.5292975,0.2666015625,0.8423614501953125,0.4556427001953125,2066846.5272835,1.359803080558777,-1.867968082427979,-1.218060374259949,2066846.5157785,163.2463836669922,152.6888885498047,-462.2520751953125,3
2023-02-19T21:11:31.108Z,146,2066846.5492865,0.2686004638671875,0.8317108154296875,0.41705322265625,2066846.5473025,1.164033651351929,-2.418357372283936,-0.9353570342063904,2066846.5354625,161.3770751953125,153.080322265625,-463.5469970703125,3
2023-02-19T21:11:31.128Z,147,2066846.5693065,0.2375946044921875,0.8171844482421875,0.410614013671875,2066846.5672915,0.9901169538497925,-2.57363486289978,-0.6703410744667053,2066846.5551765,160.0289154052734,153.3109893798828,-464.712646484375,3
2023-02-19T21:11:31.148Z,148,2066846.5893255,0.156158447265625,0.7906646728515625,0.4328765869140625,2066846.5873115,0.7273894548416138,-2.488677740097046,-0.4731284081935883,2066846.5748905,159.1485137939453,153.6342926025391,-465.8626098632812,3
2023-02-19T21:11:31.168Z,149,2066846.6093145,0.0995025634765625,0.81890869140625,0.4236907958984375,2066846.6073305,0.4044612050056458,-2.257700681686401,-0.2435266375541687,2066846.5945745,158.2456665039062,153.9042816162109,-466.6201782226562,3
2023-02-19T21:11:31.188Z,150,2066846.6293345,0.103424072265625,0.8855133056640625,0.398773193359375,2066846.6273195,0.1925566643476486,-2.086835145950317,-0.06079250946640968,2066846.6142885,157.4680023193359,154.5118255615234,-467.20703125,3
2023-02-19T21:11:31.208Z,151,2066846.6493535,0.1214141845703125,0.923919677734375,0.343231201171875,2066846.6473395,0.03049745596945286,-2.080013513565063,0.2134521007537842,2066846.6339725,156.7066650390625,154.6742553710938,-466.9522094726562,3
2023-02-19T21:11:31.228Z,152,2066846.6693425,0.14398193359375,1.003738403320312,0.291595458984375,2066846.6673595,-0.06912127882242203,-2.101301670074463,0.4381232857704163,2066846.6536875,156.4758605957031,155.3684234619141,-466.9732666015625,3
2023-02-19T21:11:31.248Z,153,2066846.6893625,0.1362762451171875,1.068069458007812,0.258941650390625,2066846.6873485,-0.136470764875412,-2.069588184356689,0.5278095006942749,2066846.6733705,156.5754241943359,156.0125579833984,-467.0433654785156,3
2023-02-19T21:11:31.268Z,154,2066846.7093815,0.085235595703125,1.13409423828125,0.2218475341796875,2066846.7073675,-0.2490564286708832,-2.175434589385986,0.5672522187232971,2066846.6930855,156.8393402099609,156.7112274169922,-466.7295532226562,3
2023-02-19T21:11:31.288Z,155,2066846.7293705,0.0704193115234375,1.229843139648438,0.2227783203125,2066846.7273875,-0.1853424310684204,-2.008181571960449,0.3894731998443604,2066846.7127995,157.3055114746094,157.5210876464844,-466.3196411132812,3
2023-02-19T21:11:31.308Z,156,2066846.7493905,-0.003387451171875,1.2447509765625,0.2085418701171875,2066846.7473765,-0.06661338359117508,-1.747047781944275,0.107864148914814,2066846.7325145,157.6699066162109,158.3491973876953,-465.5865173339844,3
2023-02-19T21:11:31.328Z,157,2066846.7693795,-0.1183319091796875,1.212158203125,0.2025299072265625,2066846.7673955,-0.01368465274572372,-1.411855936050415,-0.145365983247757,2066846.7521975,157.9147644042969,158.9429016113281,-465.1931762695312,3
2023-02-19T21:11:31.348Z,158,2066846.7893985,-0.1300048828125,1.198822021484375,0.156890869140625,2066846.7874155,0.006771353539079428,-0.9973306655883789,-0.43096524477005,2066846.7719125,158.1364440917969,159.4125213623047,-464.958984375,3
2023-02-19T21:11:31.368Z,159,2066846.8094185,-0.025787353515625,1.176239013671875,0.0551300048828125,2066846.8074045,0.04135143384337425,-0.8913658857345581,-0.697796642780304,2066846.7915965,158.1959991455078,159.8405914306641,-464.5592651367188,3
2023-02-19T21:11:31.388Z,160,2066846.8294075,0.0575408935546875,1.144744873046875,-0.0371856689453125,2066846.8274235,0.09123137593269348,-1.199603319168091,-0.8397724628448486,2066846.8113105,157.8212585449219,160.0516510009766,-464.3854675292969,3
2023-02-19T21:11:31.408Z,161,2066846.8494265,0.08807373046875,1.148269653320312,-0.0675506591796875,2066846.8474435,0.1474219411611557,-1.621633648872375,-0.8202171325683594,2066846.8310245,157.2100677490234,160.675537109375,-463.8627319335938,3
2023-02-19T21:11:31.428Z,162,2066846.8694465,0.0480194091796875,1.187255859375,-0.0700225830078125,2066846.8674325,0.1386241912841797,-1.790703892707825,-0.7634539604187012,2066846.8507085,156.6914672851562,160.7850189208984,-463.6963500976562,3
2023-02-19T21:11:31.448Z,163,2066846.8894355,-0.00054931640625,1.172683715820312,-0.0225372314453125,2066846.8874515,0.1012768223881721,-1.659228920936584,-0.5501177310943604,2066846.8704225,156.0858764648438,161.0834045410156,-463.5615234375,3
2023-02-19T21:11:31.468Z,164,2066846.9094545,0.01080322265625,1.109817504882812,0.0043792724609375,2066846.9074405,0.05936851724982262,-1.834490776062012,-0.4835970401763916,2066846.8901375,155.7667083740234,161.1325073242188,-463.2369995117188,3
2023-02-19T21:11:31.488Z,165,2066846.9294745,-0.092926025390625,1.164825439453125,0.0649566650390625,2066846.9274605,-0.03415663912892342,-1.910676956176758,-0.4265169501304626,2066846.9098515,155.3485412597656,161.3506011962891,-462.9874877929688,3
2023-02-19T21:11:31.508Z,166,2066846.9494635,-0.0845184326171875,1.166885375976562,0.158447265625,2066846.9474795,-0.1523559838533401,-2.093587636947632,-0.2527608871459961,2066846.9295355,154.9908599853516,161.2590942382812,-462.8133544921875,3
2023-02-19T21:11:31.528Z,167,2066846.9694835,0.0695037841796875,1.3126220703125,0.2234039306640625,2066846.9674685,-0.004518585279583931,-1.789249539375305,-0.2060887217521667,2066846.9492495,154.9614562988281,161.50048828125,-462.5307312011719,3
2023-02-19T21:11:31.548Z,168,2066846.9895025,0.1416015625,1.28045654296875,0.093109130859375,2066846.9874885,0.2847955226898193,-0.9617004990577698,-0.3933286368846893,2066846.9689335,155.0223693847656,161.4779968261719,-462.4417114257812,3
2023-02-19T21:11:31.568Z,169,2066847.0094915,0.1474456787109375,1.0633544921875,-0.073028564453125,2066847.0075075,0.3908239603042603,-0.9521533250808716,-0.2109780162572861,2066846.9885875,154.7120666503906,161.7788543701172,-462.3241577148438,3
2023-02-19T21:11:31.588Z,170,2066847.0295115,0.083740234375,0.9834747314453125,-0.05096435546875,2066847.0274965,0.3804703652858734,-0.6463313698768616,-0.5075795650482178,2066847.0082705,154.6512298583984,161.6999816894531,-462.6544189453125,3
2023-02-19T21:11:31.608Z,171,2066847.0495305,-0.1369476318359375,0.9024658203125,0.1977691650390625,2066847.0475165,-0.09341836720705032,-0.311609297990799,-0.5216357707977295,2066847.0279545,154.5840759277344,161.7672729492188,-463.4016723632812,3
2023-02-19T21:11:31.628Z,172,2066847.0695195,0.098602294921875,1.034027099609375,0.2157440185546875,2066847.0675365,-0.04672356322407722,-1.108461141586304,0.1184845715761185,2066847.0476385,154.4036865234375,161.8954772949219,-463.1336975097656,3
2023-02-19T21:11:31.648Z,173,2066847.0895395,0.3453216552734375,1.06982421875,0.1182403564453125,2066847.0875255,0.001142762368544936,-1.8621666431427,-0.5640460848808289,2066847.0673525,154.7903442382812,162.2254180908203,-463.1951904296875,3
2023-02-19T21:11:31.668Z,174,2066847.1095585,0.006011962890625,1.025772094726562,0.2058258056640625,2066847.1075445,-0.2216463685035706,-1.250682473182678,-0.7275524139404297,2066847.0870675,154.1941528320312,162.6327819824219,-463.1148071289062,3
2023-02-19T21:11:31.688Z,175,2066847.1295475,-0.066314697265625,1.065704345703125,0.248870849609375,2066847.1275645,-0.07484468072652817,-0.2185368686914444,-0.2185855954885483,2066847.1067815,153.6154327392578,162.7098693847656,-462.6669311523438,3
2023-02-19T21:11:31.708Z,176,2066847.1495675,0.066131591796875,1.107986450195312,0.1375274658203125,2066847.1475535,-0.03171691671013832,0.4863659143447876,-0.2525947093963623,2066847.1264655,153.6905212402344,162.96533203125,-462.4083862304688,3
2023-02-19T21:11:31.728Z,177,2066847.1695565,0.095977783203125,1.0501708984375,0.0902862548828125,2066847.1675725,-0.08958767354488373,0.8440561294555664,-0.2387233674526215,2066847.1461795,153.8934478759766,162.96728515625,-462.3289184570312,3
2023-02-19T21:11:31.748Z,178,2066847.1895755,0.13983154296875,1.05609130859375,0.0942230224609375,2066847.1875925,-0.06925550103187561,0.7270517349243164,-0.1762437373399734,2066847.1658945,154.1072998046875,163.3037567138672,-462.0312805175781,3
2023-02-19T21:11:31.768Z,179,2066847.2095955,0.1667938232421875,1.038894653320312,0.1089630126953125,2066847.2075815,-0.1075395122170448,0.3940935134887695,-0.1937071532011032,2066847.1856085,154.2736053466797,163.778564453125,-461.687255859375,3
2023-02-19T21:11:31.788Z,180,2066847.2295845,0.12567138671875,1.020431518554688,0.1454620361328125,2066847.2276005,-0.1242167577147484,0.2260927855968475,-0.05246879905462265,2066847.2052925,154.7292175292969,164.3898773193359,-461.65966796875,3
2023-02-19T21:11:31.808Z,181,2066847.2496035,0.0911102294921875,1.052032470703125,0.133331298828125,2066847.2476205,-0.09459973871707916,0.3313507735729218,0.0397719144821167,2066847.2250065,154.9258117675781,164.4393463134766,-461.4347839355469,3
2023-02-19T21:11:31.828Z,182,2066847.2696235,0.0967864990234375,1.058273315429688,0.1138458251953125,2066847.2676095,-0.1008885279297829,0.3210597932338715,0.1099906861782074,2066847.2447215,155.2707824707031,164.6972503662109,-461.1734008789062,3
2023-02-19T21:11:31.848Z,183,2066847.2896125,0.1045074462890625,1.063003540039062,0.1542510986328125,2066847.2876285,-0.1363099068403244,0.230985552072525,0.1397823989391327,2066847.2644045,155.5644226074219,164.8331756591797,-460.9866333007812,3
2023-02-19T21:11:31.868Z,184,2066847.3096315,0.1235198974609375,1.079513549804688,0.1256256103515625,2066847.3076175,-0.125636488199234,0.1073054149746895,0.2156590521335602,2066847.2841195,155.6058959960938,164.9275207519531,-460.8548278808594,3
2023-02-19T21:11:31.888Z,185,2066847.3296515,0.1096954345703125,1.0595703125,0.0742645263671875,2066847.3276375,-0.09687008708715439,0.1669735461473465,0.2518117427825928,2066847.3038035,156.0497283935547,165.0641174316406,-460.5187683105469,3
2023-02-19T21:11:31.908Z,186,2066847.3496405,0.0684051513671875,1.073638916015625,0.099517822265625,2066847.3476565,-0.07765244692564011,0.3249575793743134,0.1195322573184967,2066847.3235175,156.1135559082031,164.6544799804688,-460.2591552734375,3
2023-02-19T21:11:31.928Z,187,2066847.3696605,0.0951995849609375,1.0906982421875,0.0045928955078125,2066847.3676455,-0.1488621830940247,0.1936735957860947,0.07416290789842606,2066847.3432015,156.5305023193359,165.0723571777344,-460.2044067382812,3
2023-02-19T21:11:31.948Z,188,2066847.3896795,0.0612030029296875,1.140716552734375,-0.031646728515625,2066847.3876655,-0.1239041015505791,-0.3040325939655304,0.2776188254356384,2066847.3629155,156.6275177001953,165.3016357421875,-459.8347473144531,3
2023-02-19T21:11:31.968Z,189,2066847.4096685,0.040985107421875,1.3116455078125,0.1775665283203125,2066847.4076845,-0.1742876470088959,0.1765231043100357,0.09101219475269318,2066847.3825995,157.3271789550781,165.1373291015625,-459.4671020507812,3
2023-02-19T21:11:31.988Z,190,2066847.4296745,-0.0352783203125,1.106918334960938,0.121795654296875,2066847.4276595,-0.139087587594986,0.1327939927577972,0.3037036955356598,2066847.4022695,157.6909332275391,165.4004058837891,-459.2712707519531,3
2023-02-19T21:11:32.008Z,191,2066847.4496935,-0.0261688232421875,1.108428955078125,0.17962646484375,2066847.4476795,-0.04424549266695976,0.09309238940477371,0.4860524535179138,2066847.4219835,157.9837341308594,165.5408477783203,-459.0914916992188,3
2023-02-19T21:11:32.028Z,192,2066847.4696825,0.064117431640625,1.119384765625,0.1330718994140625,2066847.4676995,0.06262077391147614,-0.1560923904180527,0.5840008854866028,2066847.4416675,158.39501953125,165.5960693359375,-459.078369140625,3
2023-02-19T21:11:32.048Z,193,2066847.4897025,0.1106414794921875,1.20733642578125,0.1317901611328125,2066847.4876885,0.09456538408994675,-0.121778629720211,0.3933779299259186,2066847.4613815,158.5506591796875,165.4668579101562,-458.8170776367188,3
2023-02-19T21:11:32.068Z,194,2066847.5097215,-0.0203399658203125,1.194183349609375,0.1071319580078125,2066847.5077075,0.07825352251529694,0.04267236217856407,0.3335177898406982,2066847.4810965,159.0685272216797,165.1471252441406,-459.5480041503906,3
2023-02-19T21:11:32.088Z,195,2066847.5297105,-0.0019683837890625,1.153915405273438,0.054931640625,2066847.5277275,0.06295419484376907,0.3510307371616364,0.3197838664054871,2066847.5008105,158.6253356933594,165.0128021240234,-459.7069091796875,3
2023-02-19T21:11:32.108Z,196,2066847.5497305,0.01068115234375,1.154373168945312,0.08673095703125,2066847.5477165,0.08137954771518707,0.4208841025829315,0.291810542345047,2066847.5205245,158.5642547607422,164.5965270996094,-459.7086181640625,3
2023-02-19T21:11:32.128Z,197,2066847.5697195,-0.0833740234375,1.16619873046875,0.1202850341796875,2066847.5677355,0.08651944249868393,0.6765542030334473,0.3556073606014252,2066847.5402085,158.2777404785156,164.0637359619141,-460.1923217773438,3
2023-02-19T21:11:32.148Z,198,2066847.5897385,-0.046112060546875,1.203384399414062,0.1017608642578125,2066847.5877555,0.06971676647663116,0.8504096269607544,0.3453808426856995,2066847.5796375,157.8173217773438,163.1975250244141,-460.8511962890625,3
2023-02-19T21:11:32.168Z,199,2066847.6097585,0.0024566650390625,1.162063598632812,0.0712127685546875,2066847.6077445,0.04791852459311485,0.7608499526977539,0.3319419920444489,2066847.5993215,157.6705017089844,162.97216796875,-461.1546020507812,3
2023-02-19T21:11:32.188Z,200,2066847.6297475,0.0211029052734375,1.140869140625,0.130523681640625,2066847.6277635,0.04224039614200592,0.8122854232788086,0.3141224980354309,2066847.6190355,157.7193145751953,162.5557098388672,-461.7308654785156,3
2023-02-19T21:11:32.209Z,201,2066847.6497665,0.02105712890625,1.140884399414062,0.1568756103515625,2066847.6477525,0.02682362496852875,0.9527336359024048,0.2339352667331696,2066847.6387505,157.8638305664062,161.9948577880859,-461.751953125,3
2023-02-19T21:11:32.228Z,202,2066847.6697865,0.0225830078125,1.149017333984375,0.1388092041015625,2066847.6677725,-0.01685061864554882,1.018611669540405,0.1642145067453384,2066847.6584335,158.046630859375,161.5942840576172,-462.094482421875,3
2023-02-19T21:11:32.248Z,203,2066847.6897755,0.044708251953125,1.11920166015625,0.1019134521484375,2066847.6877915,-0.06422772258520126,0.8289725184440613,0.09642507135868073,2066847.6781485,158.2708282470703,161.1629180908203,-461.9255981445312,3
2023-02-19T21:11:32.268Z,204,2066847.7097945,0.0662689208984375,1.08538818359375,0.0937652587890625,2066847.7077805,-0.07730064541101456,0.6304327845573425,0.01842241734266281,2066847.6978325,158.4494781494141,160.6591339111328,-461.8678894042969,3
2023-02-19T21:11:32.288Z,205,2066847.7298145,0.034820556640625,1.086395263671875,0.1214752197265625,2066847.7278005,-0.08240619301795959,0.6443502306938171,-0.1094833537936211,2066847.7175465,158.5421752929688,160.0628356933594,-461.8299560546875,3
2023-02-19T21:11:32.308Z,206,2066847.7498035,0.009002685546875,1.062637329101562,0.1112518310546875,2066847.7478195,-0.1091035827994347,0.6966482996940613,-0.2123615294694901,2066847.7372305,159.0330505371094,159.590087890625,-461.5785522460938,3
2023-02-19T21:11:32.328Z,207,2066847.7698235,0.050872802734375,0.9863128662109375,0.0494537353515625,2066847.7678085,-0.3222944140434265,0.1977785974740982,-0.4016861915588379,2066847.7569445,159.4384307861328,159.1721038818359,-461.3149719238281,3
2023-02-19T21:11:32.348Z,208,2066847.7898425,0.0152435302734375,1.099822998046875,0.088531494140625,2066847.7878285,-0.1318283379077911,0.2885444462299347,-0.405452698469162,2066847.7766585,159.4670104980469,158.7428436279297,-460.875244140625,3
2023-02-19T21:11:32.368Z,209,2066847.8098315,0.007598876953125,1.003875732421875,0.077880859375,2066847.8078475,-0.2266086488962173,0.3878012597560883,-0.6217876672744751,2066847.7963425,159.5816040039062,158.0140380859375,-460.4498901367188,3
2023-02-19T21:11:32.388Z,210,2066847.8298515,-0.0434112548828125,0.97332763671875,0.065185546875,2066847.8278365,-0.2236237674951553,0.4017487764358521,-0.6492094397544861,2066847.8160265,159.7181701660156,157.7126159667969,-460.5208740234375,3
2023-02-19T21:11:32.408Z,211,2066847.8498705,-0.0230560302734375,0.9809417724609375,0.0918731689453125,2066847.8478565,-0.2812764048576355,0.4672321677207947,-0.8016684651374817,2066847.8357415,159.5040740966797,157.1256103515625,-460.3739624023438,3
2023-02-19T21:11:32.428Z,212,2066847.8698595,-0.001312255859375,1.040603637695312,0.1175689697265625,2066847.8678765,-0.2828657925128937,0.5702142119407654,-1.052999019622803,2066847.8554245,159.5668792724609,156.6698913574219,-460.0631713867188,3
2023-02-19T21:11:32.448Z,213,2066847.8898795,-0.0337066650390625,0.84130859375,0.03997802734375,2066847.8878655,-0.2910323739051819,0.4542210400104523,-1.099554538726807,2066847.8751395,158.9783477783203,156.2703247070312,-459.8118286132812,3
2023-02-19T21:11:32.468Z,214,2066847.9098985,-0.068267822265625,0.874176025390625,0.07647705078125,2066847.9078845,-0.239753469824791,0.4881736636161804,-1.099440217018127,2066847.8948535,158.4740295410156,155.8119049072266,-459.6871948242188,3
2023-02-19T21:11:32.488Z,215,2066847.9298875,-0.0743865966796875,0.8425445556640625,0.0834503173828125,2066847.9279045,-0.171831414103508,0.4027330577373505,-1.049511551856995,2066847.9145375,157.8076324462891,155.3231353759766,-459.7086181640625,3
2023-02-19T21:11:32.508Z,216,2066847.9499075,-0.0824127197265625,0.831573486328125,0.087493896484375,2066847.9478935,-0.1714953184127808,0.1201988458633423,-0.9678787589073181,2066847.9342515,157.0633392333984,154.552734375,-459.8603820800781,3
2023-02-19T21:11:32.528Z,217,2066847.9698965,-0.04620361328125,0.876983642578125,0.0562896728515625,2066847.9679125,-0.16171033680439,-0.052726861089468,-1.033089399337769,2066847.9539665,156.424072265625,154.1956024169922,-460.1546325683594,3
2023-02-19T21:11:32.548Z,218,2066847.9899155,0.00372314453125,0.8625030517578125,0.026947021484375,2066847.9879325,-0.1338334381580353,-0.3114359080791473,-1.155324816703796,2066847.9736495,155.2150421142578,153.6335754394531,-459.9666748046875,3
2023-02-19T21:11:32.568Z,219,2066848.0099355,-0.11883544921875,0.8191070556640625,0.11309814453125,2066848.0079215,-0.1650020033121109,-0.3768841624259949,-1.118055701255798,2066847.9933645,154.3213958740234,152.8274230957031,-460.2250671386719,3
2023-02-19T21:11:32.588Z,220,2066848.0299245,-0.1926116943359375,0.840667724609375,0.1596221923828125,2066848.0279405,-0.1838886141777039,-0.155202642083168,-1.069791555404663,2066848.0130485,153.2073211669922,152.1949920654297,-460.1182250976562,3
2023-02-19T21:11:32.608Z,221,2066848.0499435,-0.1645660400390625,0.8629608154296875,0.12249755859375,2066848.0479295,-0.1576367616653442,-0.009039834141731262,-1.044598817825317,2066848.0327625,152.3634338378906,151.4878997802734,-460.3084106445312,3
2023-02-19T21:11:32.628Z,222,2066848.0699635,-0.10076904296875,0.878326416015625,0.09222412109375,2066848.0679495,-0.09880327433347702,-0.2214375883340836,-0.9871917366981506,2066848.0524465,151.6037750244141,151.2809753417969,-460.2737731933594,3
2023-02-19T21:11:32.649Z,223,2066848.0899525,-0.089202880859375,0.871612548828125,0.1375274658203125,2066848.0879685,-0.0380464531481266,-0.3300255835056305,-0.9401999711990356,2066848.0721605,150.9339904785156,150.8257293701172,-460.2702941894531,3
2023-02-19T21:11:32.668Z,224,2066848.1099715,-0.13250732421875,0.846923828125,0.1629486083984375,2066848.1079575,0.01028992142528296,-0.2839606106281281,-0.8514565229415894,2066848.0918755,149.7985076904297,150.3521728515625,-459.9508666992188,3
2023-02-19T21:11:32.688Z,225,2066848.1299915,-0.1533966064453125,0.8553619384765625,0.10589599609375,2066848.1279775,0.01943761296570301,-0.5150412321090698,-0.7907090187072754,2066848.1115585,149.4827117919922,149.7631530761719,-460.0972290039062,3
2023-02-19T21:11:32.708Z,226,2066848.1499805,-0.0947418212890625,0.8408966064453125,0.1024322509765625,2066848.1479965,0.03276913240551949,-0.6353790760040283,-0.7498460412025452,2066848.1312735,148.5357208251953,149.2450408935547,-459.8621215820312,3
2023-02-19T21:11:32.728Z,227,2066848.1700005,-0.085418701171875,0.8421783447265625,0.14251708984375,2066848.1679855,0.08236677944660187,-0.7797466516494751,-0.6728860139846802,2066848.1509575,148.4993133544922,148.7783203125,-459.5625915527344,3
2023-02-19T21:11:32.748Z,228,2066848.1900195,-0.129180908203125,0.862152099609375,0.1784210205078125,2066848.1880055,0.1658576726913452,-0.8510138988494873,-0.6025833487510681,2066848.1706405,147.9462738037109,148.5307769775391,-459.4377136230469,3
2023-02-19T21:11:32.768Z,229,2066848.2100085,-0.1589813232421875,0.85394287109375,0.236175537109375,2066848.2080245,0.2492745369672775,-0.7972172498703003,-0.553065299987793,2066848.1903555,147.3480834960938,147.9363250732422,-458.9189147949219,3
2023-02-19T21:11:32.788Z,230,2066848.2300285,-0.1729888916015625,0.832000732421875,0.2171478271484375,2066848.2280135,0.2847326695919037,-0.8549894690513611,-0.453795999288559,2066848.2100695,147.0882263183594,147.7814025878906,-458.9759521484375,3
2023-02-19T21:11:32.809Z,231,2066848.2500475,-0.1422271728515625,0.83941650390625,0.156097412109375,2066848.2480335,0.3014288246631622,-1.013854265213013,-0.3815894424915314,2066848.2297535,146.9293060302734,147.6648559570312,-458.6309814453125,3
2023-02-19T21:11:32.828Z,232,2066848.2700365,-0.09228515625,0.8209991455078125,0.1377410888671875,2066848.2680535,0.3367780148983002,-1.201919436454773,-0.3125565648078918,2066848.2494675,146.8360290527344,147.4340209960938,-458.4844360351562,3
2023-02-19T21:11:32.849Z,233,2066848.2900565,-0.1068878173828125,0.8390655517578125,0.1681976318359375,2066848.2880425,0.3906657695770264,-1.388284087181091,-0.2024758756160736,2066848.2691515,146.4937896728516,147.0426177978516,-457.910888671875,3
2023-02-19T21:11:32.869Z,234,2066848.3100755,-0.1486663818359375,0.8843536376953125,0.2038726806640625,2066848.3080615,0.4297204911708832,-1.455220460891724,-0.1315681487321854,2066848.2888665,146.5951690673828,146.9057159423828,-457.434814453125,3
2023-02-19T21:11:32.888Z,235,2066848.3300645,-0.1464385986328125,0.958953857421875,0.2529449462890625,2066848.3280815,0.493951141834259,-1.326898694038391,-0.01773505471646786,2066848.3085805,146.5761871337891,146.5921936035156,-457.2473754882812,3
2023-02-19T21:11:32.909Z,236,2066848.3500845,-0.023406982421875,1.064743041992188,0.293853759765625,2066848.3480705,0.525556206703186,-1.143951535224915,-0.1541687995195389,2066848.3282645,146.5013122558594,146.2908020019531,-456.7989501953125,3
2023-02-19T21:11:32.929Z,237,2066848.3700735,-0.025909423828125,1.055130004882812,0.1877593994140625,2066848.3680895,0.4694545865058899,-1.435678124427795,-0.216676652431488,2066848.3479485,146.4756317138672,146.4720001220703,-456.3365478515625,3
2023-02-19T21:11:32.949Z,238,2066848.3900925,-0.0803070068359375,1.03594970703125,0.133575439453125,2066848.3881095,0.3567581176757812,-1.421581029891968,-0.2205289155244827,2066848.3676625,146.2457275390625,145.8866882324219,-456.2822265625,3
2023-02-19T21:11:32.969Z,239,2066848.4101125,-0.105133056640625,1.034210205078125,0.1134796142578125,2066848.4080985,0.2504934668540955,-1.344671010971069,-0.1914181709289551,2066848.3873465,146.0611572265625,145.7634735107422,-455.6617736816406,3
2023-02-19T21:11:32.989Z,240,2066848.430100875,-0.083465576171875,1.063507080078125,0.1402435302734375,2066848.428116875,0.1915736943483353,-1.348435401916504,-0.1306363046169281,2066848.407059875,145.9243316650391,145.5724792480469,-455.0599365234375,3
2023-02-19T21:11:33.009Z,241,2066848.450119875,-0.061767578125,1.094573974609375,0.174530029296875,2066848.448105875,0.1669948399066925,-1.47142231464386,-0.08769389986991882,2066848.426743875,146.1029052734375,145.5010528564453,-454.5254821777344,3
2023-02-19T21:11:33.029Z,242,2066848.470139875,-0.041290283203125,1.098892211914062,0.2100677490234375,2066848.468125875,0.1338816285133362,-1.582787156105042,-0.0863782986998558,2066848.446457875,145.5244750976562,145.4574127197266,-454.2078857421875,3
2023-02-19T21:11:33.049Z,243,2066848.490128875,-0.0087890625,1.0645751953125,0.2115631103515625,2066848.488144875,0.121647872030735,-1.660768270492554,-0.08071455359458923,2066848.466172875,145.3337707519531,145.1612243652344,-453.3316650390625,3
2023-02-19T21:11:33.069Z,244,2066848.510147875,-0.0352630615234375,1.022796630859375,0.1986846923828125,2066848.508133875,0.1215983331203461,-1.59912121295929,-0.06709408015012741,2066848.485855875,145.3764953613281,145.2481536865234,-452.6359252929688,3
2023-02-19T21:11:33.089Z,245,2066848.530167875,-0.0533447265625,0.9834442138671875,0.1988983154296875,2066848.528153875,0.1246239542961121,-1.523608088493347,-0.05009272694587708,2066848.505570875,145.3738861083984,145.1728210449219,-451.94384765625,3
2023-02-19T21:11:33.109Z,246,2066848.550156875,-0.0405731201171875,0.9412994384765625,0.208282470703125,2066848.548172875,0.09924429655075073,-1.588971614837646,0.03017547912895679,2066848.525284875,145.5383911132812,145.0863647460938,-451.3091430664062,3
2023-02-19T21:11:33.129Z,247,2066848.570176875,0.001312255859375,0.95391845703125,0.1869354248046875,2066848.568161875,0.1096287593245506,-1.692288875579834,0.01735741831362247,2066848.544999875,145.468505859375,145.2035522460938,-450.6429443359375,3
2023-02-19T21:11:33.149Z,248,2066848.590195875,0.024261474609375,0.9362030029296875,0.2017669677734375,2066848.588181875,0.08507680892944336,-1.567773103713989,-0.01203748770058155,2066848.564682875,145.5702514648438,145.0193328857422,-449.7455749511719,3
2023-02-19T21:11:33.169Z,249,2066848.610184875,0.023406982421875,0.956146240234375,0.1835479736328125,2066848.608200875,0.06229906156659126,-1.403694987297058,-0.08491888642311096,2066848.584397875,145.7338104248047,144.8391265869141,-449.119873046875,3
2023-02-19T21:11:33.189Z,250,2066848.630204875,0.047119140625,0.9363861083984375,0.17919921875,2066848.628189875,0.06377578526735306,-1.446390748023987,-0.1099416837096214,2066848.604081875,145.9815063476562,145.0544738769531,-448.4631958007812,3
2023-02-19T21:11:33.209Z,251,2066848.650223875,0.073944091796875,0.9211883544921875,0.1978759765625,2066848.648209875,0.0692451149225235,-1.505016207695007,-0.1298187226057053,2066848.623795875,146.0087585449219,145.0931854248047,-447.6625366210938,3
2023-02-19T21:11:33.229Z,252,2066848.670212875,0.044921875,0.962127685546875,0.2270355224609375,2066848.668229875,0.1007612347602844,-1.527789711952209,-0.1388026177883148,2066848.643479875,146.1933135986328,144.8544616699219,-446.9635620117188,3
2023-02-19T21:11:33.249Z,253,2066848.690232875,0.029754638671875,0.9774017333984375,0.246673583984375,2066848.688218875,0.1110945641994476,-1.31889271736145,-0.2225286811590195,2066848.663193875,146.3594360351562,144.6939849853516,-446.4625244140625,3
2023-02-19T21:11:33.269Z,254,2066848.710251875,0.0238037109375,0.9478302001953125,0.2514495849609375,2066848.708237875,0.100914366543293,-1.164694309234619,-0.2571340501308441,2066848.682907875,146.5559844970703,144.7771911621094,-445.5496826171875,3
2023-02-19T21:11:33.289Z,255,2066848.730240875,0.0572509765625,0.9698486328125,0.2457733154296875,2066848.728257875,0.1092801541090012,-1.133383870124817,-0.2861934006214142,2066848.702591875,146.1680603027344,144.4707641601562,-445.1788940429688,3
2023-02-19T21:11:33.309Z,256,2066848.750260875,0.043243408203125,0.9720001220703125,0.2446441650390625,2066848.748246875,0.1263949573040009,-1.162961959838867,-0.2820649743080139,2066848.722306875,146.3443603515625,144.5743103027344,-444.7565307617188,3
2023-02-19T21:11:33.329Z,257,2066848.770249875,-0.0283355712890625,0.9623260498046875,0.2339324951171875,2066848.768265875,0.1244021132588387,-1.145830869674683,-0.2420302033424377,2066848.741990875,146.6284637451172,144.3341827392578,-444.22998046875,3
2023-02-19T21:11:33.349Z,258,2066848.790268875,-0.0529632568359375,0.961181640625,0.254730224609375,2066848.788285875,0.09534969180822372,-0.9578141570091248,-0.1466594785451889,2066848.761704875,146.3567047119141,144.1340637207031,-443.6822509765625,3
2023-02-19T21:11:33.369Z,259,2066848.810288875,-0.0223236083984375,0.9937591552734375,0.2713775634765625,2066848.808274875,0.05416949465870857,-0.8539998531341553,-0.06243754550814629,2066848.781418875,146.7922058105469,143.9956970214844,-443.248046875,3
2023-02-19T21:11:33.389Z,260,2066848.830277875,0.0519866943359375,1.035995483398438,0.260040283203125,2066848.828293875,0.05189542099833488,-0.9739262461662292,-0.1134815514087677,2066848.801102875,146.6718292236328,143.9296264648438,-442.8016357421875,3
2023-02-19T21:11:33.409Z,261,2066848.850296875,-0.03076171875,0.984710693359375,0.251739501953125,2066848.848282875,0.001381648005917668,-0.8686480522155762,-0.08063066005706787,2066848.820816875,147.1788177490234,143.9713897705078,-442.2437133789062,3
2023-02-19T21:11:33.429Z,262,2066848.870316875,-0.056976318359375,0.99530029296875,0.2805023193359375,2066848.868302875,-0.04005953669548035,-0.7625322341918945,-0.007063235621899366,2066848.860215875,147.4288940429688,143.6648864746094,-441.1179504394531,3
2023-02-19T21:11:33.449Z,263,2066848.890305875,-0.0061492919921875,0.9939727783203125,0.288665771484375,2066848.888321875,-0.05488082394003868,-0.6883368492126465,0.001924666459672153,2066848.879929875,147.6306915283203,143.4881439208984,-440.9671936035156,3
2023-02-19T21:11:33.469Z,264,2066848.910324875,-0.032073974609375,1.000930786132812,0.3056182861328125,2066848.908310875,-0.05894321203231812,-0.5669987201690674,0.05581985786557198,2066848.899613875,148.0746765136719,143.3401031494141,-440.7294921875,3
2023-02-19T21:11:33.489Z,265,2066848.930344875,-0.08404541015625,1.0042724609375,0.2855987548828125,2066848.928330875,-0.06747757643461227,-0.438291609287262,0.1737560778856277,2066848.919297875,148.4711608886719,143.6943664550781,-440.4446716308594,3
2023-02-19T21:11:33.509Z,266,2066848.950333875,-0.0570526123046875,1.031097412109375,0.2594451904296875,2066848.948349875,-0.08614420890808105,-0.2919934988021851,0.258256584405899,2066848.939011875,148.5190124511719,143.5552062988281,-439.9930114746094,3
2023-02-19T21:11:33.529Z,267,2066848.970353875,-0.0160064697265625,1.0482177734375,0.313201904296875,2066848.968338875,-0.1024629920721054,-0.1493636518716812,0.3129496574401855,2066848.958695875,148.5108795166016,143.7925567626953,-439.9505004882812,3
2023-02-19T21:11:33.549Z,268,2066848.990372875,0.0005340576171875,1.077529907226562,0.3239288330078125,2066848.988358875,-0.1084196865558624,-0.0537942573428154,0.3323622345924377,2066848.978409875,148.7547302246094,143.5662231445312,-439.9990844726562,3
2023-02-19T21:11:33.569Z,269,2066849.010361875,0.0215911865234375,1.128494262695312,0.3202056884765625,2066849.008377875,-0.09104282408952713,-0.006190251559019089,0.3196709454059601,2066848.998093875,148.9081573486328,143.8543548583984,-439.87890625,3
2023-02-19T21:11:33.589Z,270,2066849.030381875,-0.016021728515625,1.09747314453125,0.35662841796875,2066849.028366875,-0.07433122396469116,0.08700919896364212,0.3582814633846283,2066849.017807875,148.9415740966797,143.9031219482422,-440.2457885742188,3
2023-02-19T21:11:33.609Z,271,2066849.050400875,-0.0932769775390625,0.9969635009765625,0.343353271484375,2066849.048386875,-0.1014818847179413,0.1175375506281853,0.4861784279346466,2066849.037522875,148.8675537109375,143.7200012207031,-440.0117797851562,3
2023-02-19T21:11:33.629Z,272,2066849.070389875,-0.202423095703125,0.855072021484375,0.3658599853515625,2066849.068406875,-0.1410247683525085,0.2656532526016235,0.7551624774932861,2066849.057206875,149.100341796875,143.9844512939453,-440.4012451171875,3
2023-02-19T21:11:33.649Z,273,2066849.090409875,-0.2542877197265625,0.7725677490234375,0.3389434814453125,2066849.088395875,-0.2072376012802124,0.459363579750061,1.142997860908508,2066849.076920875,149.8140258789062,144.4459838867188,-440.3512573242188,3
2023-02-19T21:11:33.669Z,274,2066849.110428875,-0.1492462158203125,0.84478759765625,0.31787109375,2066849.108414875,-0.2493794709444046,0.9134533405303955,1.476954460144043,2066849.096604875,150.6055755615234,144.6595001220703,-440.3378601074219,3
2023-02-19T21:11:33.689Z,275,2066849.130417875,0.1053466796875,0.9304962158203125,0.3429107666015625,2066849.128434875,-0.2967326045036316,1.070185661315918,1.516201496124268,2066849.116318875,151.7041168212891,145.2899169921875,-440.3639526367188,3
2023-02-19T21:11:33.709Z,276,2066849.150437875,0.2528533935546875,1.026336669921875,0.3148193359375,2066849.148423875,-0.3240022957324982,0.8377801179885864,1.428948402404785,2066849.136002875,152.4364776611328,145.7190551757812,-440.435546875,3
2023-02-19T21:11:33.729Z,277,2066849.170426875,0.1857147216796875,1.042556762695312,0.2576141357421875,2066849.168442875,-0.3540203869342804,0.4745247066020966,1.600861310958862,2066849.155716875,153.2472839355469,145.9864501953125,-440.4201049804688,3
2023-02-19T21:11:33.749Z,278,2066849.190445875,0.1098785400390625,1.141311645507812,0.3211822509765625,2066849.188462875,-0.3854385018348694,0.6288372874259949,1.735515236854553,2066849.175400875,153.793701171875,146.2043304443359,-440.6495361328125,3
2023-02-19T21:11:33.769Z,279,2066849.210465875,0.0962371826171875,1.124176025390625,0.3930206298828125,2066849.208451875,-0.4790337085723877,0.8911211490631104,1.944809079170227,2066849.195115875,154.5563659667969,146.685546875,-441.1228332519531,3
2023-02-19T21:11:33.789Z,280,2066849.230454875,0.157501220703125,1.078857421875,0.4387359619140625,2066849.228470875,-0.6247749328613281,0.9271829724311829,2.194281578063965,2066849.214798875,155.6358337402344,146.9486083984375,-441.3346252441406,3
2023-02-19T21:11:33.809Z,281,2066849.250473875,0.2471771240234375,1.044631958007812,0.4047698974609375,2066849.248490875,-0.838631808757782,0.9838135242462158,2.379406213760376,2066849.234482875,156.6432189941406,147.2111511230469,-441.4307250976562,3
2023-02-19T21:11:33.829Z,282,2066849.270493875,0.312469482421875,1.0325927734375,0.3678436279296875,2066849.268479875,-1.066242814064026,1.022733449935913,2.55090594291687,2066849.254197875,157.5234069824219,147.4042510986328,-441.2031860351562,3
2023-02-19T21:11:33.849Z,283,2066849.290482875,0.3977203369140625,0.9895477294921875,0.4490203857421875,2066849.288498875,-1.273372888565063,0.853339672088623,2.769411087036133,2066849.273880875,159.0009307861328,147.4500122070312,-440.834228515625,3
2023-02-19T21:11:33.869Z,284,2066849.310501875,0.4602203369140625,0.9599151611328125,0.4911651611328125,2066849.308487875,-1.434511184692383,0.6729333996772766,2.900349378585815,2066849.293564875,160.3571014404297,147.4765167236328,-440.55029296875,3
2023-02-19T21:11:33.889Z,285,2066849.330521875,0.5195770263671875,0.8878631591796875,0.53033447265625,2066849.328507875,-1.549234867095947,0.6107416749000549,3.077445030212402,2066849.313279875,161.8891754150391,146.9913330078125,-440.0447387695312,3
2023-02-19T21:11:33.909Z,286,2066849.350510875,0.52960205078125,0.8393096923828125,0.5713043212890625,2066849.348526875,-1.660179138183594,0.6588103771209717,3.206521511077881,2066849.332962875,163.2697601318359,146.5656127929688,-439.31201171875,3
2023-02-19T21:11:33.929Z,287,2066849.370530875,0.515655517578125,0.7949676513671875,0.65557861328125,2066849.368515875,-1.765500068664551,0.7708029747009277,3.460277318954468,2066849.352677875,164.5281372070312,146.1010437011719,-438.7552490234375,3
2023-02-19T21:11:33.949Z,288,2066849.390549875,0.663604736328125,0.751068115234375,0.6475677490234375,2066849.388535875,-1.849864721298218,0.7215946912765503,3.554956436157227,2066849.372391875,165.9381561279297,145.5332183837891,-437.9673461914062,3
2023-02-19T21:11:33.969Z,289,2066849.410538875,0.7150115966796875,0.711334228515625,0.6696624755859375,2066849.408554875,-1.985029220581055,0.7259124517440796,3.635543584823608,2066849.392075875,167.7765350341797,144.2955474853516,-436.8018188476562,3
2023-02-19T21:11:33.989Z,290,2066849.430539125,0.666168212890625,0.6251220703125,0.680419921875,2066849.428524125,-2.154389381408691,0.9037490487098694,3.768837451934814,2066849.411740125,168.9876251220703,142.9466247558594,-435.9070129394531,3
2023-02-19T21:11:34.009Z,291,2066849.450558125,0.688690185546875,0.5682830810546875,0.743896484375,2066849.448544125,-2.298515796661377,1.011421680450439,3.917355537414551,2066849.431454125,170.9863433837891,141.2337493896484,-435.1053466796875,3
2023-02-19T21:11:34.029Z,292,2066849.470547125,0.874359130859375,0.517974853515625,0.75714111328125,2066849.468564125,-2.38890814781189,0.8179614543914795,3.921666145324707,2066849.451138125,172.0549468994141,139.6632843017578,-433.5359497070312,3
2023-02-19T21:11:34.049Z,293,2066849.490567125,0.84246826171875,0.4218902587890625,0.77398681640625,2066849.488553125,-2.455758810043335,0.7506260871887207,4.001303672790527,2066849.470852125,173.21142578125,137.9107818603516,-432.4427185058594,3
2023-02-19T21:11:34.069Z,294,2066849.510586125,0.7901153564453125,0.3597412109375,0.7643280029296875,2066849.508572125,-2.545150756835938,0.8562734127044678,4.046361446380615,2066849.490536125,174.4266357421875,135.4465484619141,-431.2586669921875,3
2023-02-19T21:11:34.089Z,295,2066849.530575125,0.849761962890625,0.289154052734375,0.7942047119140625,2066849.528592125,-2.603139638900757,0.8039337396621704,4.09657096862793,2066849.510251125,175.3470458984375,132.7317047119141,-430.0272216796875,3
2023-02-19T21:11:34.109Z,296,2066849.550595125,0.8554534912109375,0.206817626953125,0.7861175537109375,2066849.548581125,-2.669345140457153,0.7249606251716614,4.08240795135498,2066849.529934125,176.126220703125,129.9211120605469,-429.0354309082031,3
2023-02-19T21:11:34.129Z,297,2066849.570584125,0.842010498046875,0.1298065185546875,0.7518157958984375,2066849.568600125,-2.82741904258728,0.9337037205696106,3.99355149269104,2066849.549649125,177.2213287353516,126.8258972167969,-427.8264770507812,3
2023-02-19T21:11:34.149Z,298,2066849.590603125,0.886749267578125,0.045318603515625,0.732696533203125,2066849.588620125,-2.984117269515991,1.11099112033844,3.814099073410034,2066849.569333125,177.3540802001953,123.7234497070312,-426.8738403320312,3
2023-02-19T21:11:34.169Z,299,2066849.610623125,0.851806640625,-0.037567138671875,0.7699737548828125,2066849.608609125,-3.048462152481079,1.15258526802063,3.662620067596436,2066849.589047125,177.3189239501953,120.0601959228516,-426.2385864257812,3
2023-02-19T21:11:34.189Z,300,2066849.630612125,0.83258056640625,-0.0828857421875,0.7762451171875,2066849.628628125,-3.024941205978394,1.208429098129272,3.503332138061523,2066849.608731125,176.7302856445312,116.4130859375,-425.0809326171875,3
2023-02-19T21:11:34.209Z,301,2066849.650631125,0.8046722412109375,-0.12664794921875,0.820709228515625,2066849.648648125,-2.9599289894104,1.14161491394043,3.325106859207153,2066849.628415125,175.9852600097656,112.4924926757812,-424.3796997070312,3
2023-02-19T21:11:34.229Z,302,2066849.670651125,0.7414703369140625,-0.195159912109375,0.740692138671875,2066849.668637125,-2.93481707572937,1.142951250076294,3.168732166290283,2066849.648098125,174.86083984375,109.1078186035156,-424.0780639648438,3
2023-02-19T21:11:34.249Z,303,2066849.690640125,0.745941162109375,-0.2289276123046875,0.7017669677734375,2066849.688656125,-2.874189376831055,1.06838059425354,2.872422456741333,2066849.667813125,173.8556060791016,105.6938018798828,-423.4354248046875,3
2023-02-19T21:11:34.269Z,304,2066849.710659125,0.6923370361328125,-0.332244873046875,0.6954193115234375,2066849.708645125,-2.840007305145264,0.9739552736282349,2.68974232673645,2066849.687497125,172.3880615234375,102.3428649902344,-423.0330200195312,3
2023-02-19T21:11:34.289Z,305,2066849.730679125,0.5421905517578125,-0.384368896484375,0.6526947021484375,2066849.728665125,-2.813010215759277,1.154596447944641,2.459001064300537,2066849.707211125,171.1561737060547,99.16612243652344,-422.77197265625,3
2023-02-19T21:11:34.309Z,306,2066849.750668125,0.4763946533203125,-0.453338623046875,0.680389404296875,2066849.748684125,-2.81946873664856,1.402902603149414,2.285393714904785,2066849.726895125,169.8341979980469,96.25181579589844,-422.6090698242188,3
2023-02-19T21:11:34.329Z,307,2066849.770688125,0.508026123046875,-0.4591064453125,0.647186279296875,2066849.768673125,-2.729430437088013,1.287770509719849,2.046705484390259,2066849.746579125,168.4044799804688,93.40414428710938,-422.6668090820312,3
2023-02-19T21:11:34.349Z,308,2066849.790707125,0.450439453125,-0.49462890625,0.60382080078125,2066849.788693125,-2.625386476516724,1.15095317363739,1.856385707855225,2066849.766293125,166.6385650634766,90.45677185058594,-422.8878784179688,3
2023-02-19T21:11:34.369Z,309,2066849.810696125,0.3527984619140625,-0.538909912109375,0.5429840087890625,2066849.808712125,-2.451639175415039,1.007940649986267,1.696633577346802,2066849.785977125,165.3067169189453,87.86738586425781,-423.0549011230469,3
2023-02-19T21:11:34.389Z,310,2066849.830716125,0.3292236328125,-0.543731689453125,0.566741943359375,2066849.828701125,-2.327893018722534,1.119699478149414,1.523455142974854,2066849.805691125,164.3037414550781,85.66648864746094,-423.3369750976562,3
2023-02-19T21:11:34.409Z,311,2066849.850735125,0.32012939453125,-0.5381927490234375,0.552825927734375,2066849.848721125,-2.208509683609009,1.141918420791626,1.277118325233459,2066849.825375125,163.1053924560547,83.72776794433594,-423.898681640625,3
2023-02-19T21:11:34.429Z,312,2066849.870724125,0.285308837890625,-0.5922698974609375,0.5257720947265625,2066849.868741125,-2.049540996551514,0.9494574069976807,1.216683030128479,2066849.845059125,161.8239440917969,81.91171264648438,-424.2568054199219,3
2023-02-19T21:11:34.449Z,313,2066849.890744125,0.27679443359375,-0.6029205322265625,0.5026397705078125,2066849.888730125,-1.91911780834198,0.9517146944999695,1.075575709342957,2066849.864743125,160.6594543457031,80.14810180664062,-424.79638671875,3
2023-02-19T21:11:34.469Z,314,2066849.910763125,0.229766845703125,-0.634307861328125,0.4862213134765625,2066849.908749125,-1.802523493766785,0.838403582572937,0.9758032560348511,2066849.884457125,159.6307983398438,78.72230529785156,-425.2186279296875,3
2023-02-19T21:11:34.489Z,315,2066849.930752125,0.1890716552734375,-0.7000885009765625,0.44866943359375,2066849.928769125,-1.763482451438904,0.858063817024231,0.9074311256408691,2066849.904171125,158.5956420898438,77.76693725585938,-425.7568359375,3
2023-02-19T21:11:34.509Z,316,2066849.950772125,0.15679931640625,-0.7378692626953125,0.4106292724609375,2066849.948758125,-1.718198537826538,0.7783623337745667,0.8501611948013306,2066849.923855125,158.0597686767578,76.64181518554688,-426.4034423828125,3
2023-02-19T21:11:34.529Z,317,2066849.970761125,0.099639892578125,-0.79046630859375,0.38568115234375,2066849.968777125,-1.646094560623169,0.8030879497528076,0.8340357542037964,2066849.943570125,156.9394378662109,75.37509155273438,-426.8194274902344,3
2023-02-19T21:11:34.549Z,318,2066849.990780125,0.0657501220703125,-0.8206634521484375,0.3560943603515625,2066849.988797125,-1.60132896900177,0.7556250691413879,0.8465784192085266,2066849.963253125,156.2684173583984,74.41522216796875,-427.3961181640625,3
2023-02-19T21:11:34.569Z,319,2066850.010800125,0.0511322021484375,-0.8167266845703125,0.384307861328125,2066850.008786125,-1.580544590950012,0.8325033783912659,0.84065181016922,2066849.982968125,155.4064636230469,73.75651550292969,-428.2728271484375,3
2023-02-19T21:11:34.589Z,320,2066850.030789125,0.101654052734375,-0.832000732421875,0.3184051513671875,2066850.028805125,-1.548720598220825,0.7716231942176819,0.7881526350975037,2066850.002652125,154.5867462158203,72.91423034667969,-429.0852661132812,3
2023-02-19T21:11:34.609Z,321,2066850.050808125,-0.001434326171875,-0.8757476806640625,0.191650390625,2066850.048825125,-1.43920361995697,0.5594174861907959,0.8200120329856873,2066850.022336125,153.7986145019531,71.91297912597656,-429.8917541503906,3
2023-02-19T21:11:34.629Z,322,2066850.070828125,-0.13092041015625,-0.9249114990234375,0.198638916015625,2066850.068814125,-1.384817600250244,0.7465500831604004,0.8537282347679138,2066850.042019125,153.1129913330078,71.46780395507812,-430.4581909179688,3
2023-02-19T21:11:34.649Z,323,2066850.090817125,-0.0587005615234375,-0.7001190185546875,0.2357940673828125,2066850.088833125,-1.37060809135437,0.9872103929519653,0.6503625512123108,2066850.061703125,152.2418212890625,71.00267028808594,-431.4134521484375,3
2023-02-19T21:11:34.670Z,324,2066850.110836125,0.0316009521484375,-0.9219207763671875,0.112091064453125,2066850.108822125,-1.277392387390137,0.7522439360618591,0.5599378943443298,2066850.081418125,151.4354095458984,70.37892150878906,-432.3287048339844,3
2023-02-19T21:11:34.689Z,325,2066850.130856125,-0.12225341796875,-0.9361114501953125,0.0995025634765625,2066850.128842125,-1.148571252822876,0.5477994680404663,0.6274498105049133,2066850.120846125,150.1999359130859,69.29598999023438,-433.9635620117188,3
2023-02-19T21:11:34.709Z,326,2066850.150845125,-0.1465606689453125,-0.8927459716796875,0.0382080078125,2066850.148861125,-1.031403183937073,0.6402276754379272,0.5659734010696411,2066850.140530125,149.3294982910156,69.07723999023438,-434.6614990234375,3
2023-02-19T21:11:34.729Z,327,2066850.170865125,-0.20330810546875,-0.88653564453125,0.0120697021484375,2066850.168850125,-0.9127635955810547,0.6495079398155212,0.5417948365211487,2066850.160244125,148.8076934814453,68.76866149902344,-435.570556640625,3
2023-02-19T21:11:34.749Z,328,2066850.190884125,-0.22052001953125,-0.86761474609375,0.02325439453125,2066850.188870125,-0.870985746383667,0.7180108428001404,0.5340633988380432,2066850.179959125,148.4256591796875,68.56488037109375,-436.1307373046875,3
2023-02-19T21:11:34.769Z,329,2066850.210873125,-0.1455841064453125,-0.871673583984375,0.021484375,2066850.208889125,-0.810764491558075,0.4872421026229858,0.484472930431366,2066850.199643125,147.9257965087891,68.28987121582031,-436.9293212890625,3
2023-02-19T21:11:34.789Z,330,2066850.230893125,-0.2294769287109375,-0.8980560302734375,-0.052398681640625,2066850.228878125,-0.724012553691864,0.4142387211322784,0.5027691125869751,2066850.219357125,147.4248199462891,68.0152587890625,-437.3359985351562,3
2023-02-19T21:11:34.809Z,331,2066850.250912125,-0.2552337646484375,-0.83221435546875,-0.0619659423828125,2066850.248898125,-0.6281001567840576,0.4020648896694183,0.4464619159698486,2066850.239041125,146.8978118896484,68.02688598632812,-437.9240112304688,3
2023-02-19T21:11:34.829Z,332,2066850.270901125,-0.2790679931640625,-0.84979248046875,-0.0748291015625,2066850.268918125,-0.5335004329681396,0.3852941691875458,0.4614661633968353,2066850.258755125,146.6439819335938,67.8260498046875,-438.4024658203125,3
2023-02-19T21:11:34.849Z,333,2066850.290921125,-0.2248382568359375,-0.844940185546875,-0.072418212890625,2066850.288907125,-0.4228394031524658,0.2611213326454163,0.3988523185253143,2066850.278439125,146.2317047119141,67.80084228515625,-438.8912048339844,3
2023-02-19T21:11:34.869Z,334,2066850.310940125,-0.26751708984375,-0.872711181640625,-0.101837158203125,2066850.308926125,-0.246796727180481,0.09558884054422379,0.37142413854599,2066850.298153125,145.9029846191406,67.39881896972656,-439.1183776855469,3
2023-02-19T21:11:34.889Z,335,2066850.330929125,-0.303131103515625,-0.850799560546875,-0.0937652587890625,2066850.328946125,-0.1132525205612183,0.07955528050661087,0.3263576030731201,2066850.317837125,145.5230712890625,67.49807739257812,-439.4219970703125,3
2023-02-19T21:11:34.909Z,336,2066850.350949125,-0.27520751953125,-0.88238525390625,-0.116058349609375,2066850.348935125,0.001013865461573005,0.0958184078335762,0.2416688203811646,2066850.337552125,145.5321044921875,67.608154296875,-439.3919372558594,3
2023-02-19T21:11:34.929Z,337,2066850.370968125,-0.2445220947265625,-0.917572021484375,-0.1361846923828125,2066850.368954125,0.06758703291416168,0.008557802066206932,0.115491971373558,2066850.357235125,145.2745666503906,67.65193176269531,-439.3862609863281,3
2023-02-19T21:11:34.949Z,338,2066850.390957125,-0.2729034423828125,-0.93798828125,-0.1382598876953125,2066850.388974125,0.1180241107940674,-0.02074762247502804,0.03911437839269638,2066850.376950125,145.2638854980469,67.79316711425781,-439.6697082519531,3
2023-02-19T21:11:34.969Z,339,2066850.410977125,-0.2997283935546875,-0.946319580078125,-0.128387451171875,2066850.408963125,0.1825698167085648,-0.1104101315140724,0.003826962551102042,2066850.396634125,145.0906066894531,67.71676635742188,-439.6068115234375,3
2023-02-19T21:11:34.989Z,340,2066850.430973917,-0.314422607421875,-0.9554443359375,-0.139678955078125,2066850.428989917,0.2214599549770355,-0.1751475781202316,-0.002455168170854449,2066850.416324917,145.2184143066406,68.02593994140625,-439.4154052734375,3
2023-02-19T21:11:35.009Z,341,2066850.450992917,-0.309783935546875,-0.9718475341796875,-0.1253204345703125,2066850.449009917,0.2599831223487854,-0.2040503323078156,0.008199074305593967,2066850.436039917,145.0516052246094,67.83999633789062,-438.9600219726562,3
2023-02-19T21:11:35.029Z,342,2066850.471012917,-0.3146514892578125,-0.975189208984375,-0.1043243408203125,2066850.468998917,0.275559663772583,-0.3033961057662964,0.03543096035718918,2066850.455723917,145.0257568359375,67.99969482421875,-438.6675415039062,3
2023-02-19T21:11:35.049Z,343,2066850.491001917,-0.2981414794921875,-0.968231201171875,-0.1280364990234375,2066850.489017917,0.2558629214763641,-0.297779768705368,-0.007769239600747824,2066850.475437917,145.3110961914062,67.95783996582031,-438.5910949707031,3
2023-02-19T21:11:35.069Z,344,2066850.511020917,-0.2915802001953125,-0.976226806640625,-0.1172637939453125,2066850.509037917,0.2233199030160904,-0.3387431800365448,-0.05231859907507896,2066850.495121917,145.1910705566406,68.08366394042969,-438.3902587890625,3
2023-02-19T21:11:35.089Z,345,2066850.531040917,-0.300018310546875,-0.97918701171875,-0.098358154296875,2066850.529026917,0.1699453592300415,-0.38636314868927,-0.0262190867215395,2066850.514835917,145.2037506103516,68.08412170410156,-438.2659301757812,3
2023-02-19T21:11:35.109Z,346,2066850.551029917,-0.296173095703125,-0.947784423828125,-0.0676727294921875,2066850.549045917,0.1638147681951523,-0.3992368578910828,-0.05272899195551872,2066850.534519917,145.3846435546875,68.15089416503906,-438.2734680175781,3
2023-02-19T21:11:35.130Z,347,2066850.571049917,-0.3059844970703125,-0.971038818359375,-0.0558319091796875,2066850.569034917,0.1484925299882889,-0.3751097023487091,-0.04453204944729805,2066850.554203917,145.3837738037109,68.04345703125,-437.8305358886719,3
2023-02-19T21:11:35.150Z,348,2066850.591068917,-0.30792236328125,-0.931793212890625,-0.04937744140625,2066850.589054917,0.1825572997331619,-0.2890616357326508,-0.0800200030207634,2066850.573917917,145.6399230957031,68.10556030273438,-437.7518920898438,3
2023-02-19T21:11:35.169Z,349,2066850.611057917,-0.31951904296875,-0.94683837890625,-0.027984619140625,2066850.609073917,0.1978651434183121,-0.3020693063735962,-0.0607893131673336,2066850.593601917,145.4833526611328,68.23197937011719,-437.6045837402344,3
2023-02-19T21:11:35.189Z,350,2066850.631077917,-0.317138671875,-0.981353759765625,0.004547119140625,2066850.629062917,0.2257638871669769,-0.2668277025222778,-0.02573785372078419,2066850.613315917,145.5028381347656,68.26785278320312,-437.6130981445312,3
2023-02-19T21:11:35.209Z,351,2066850.651096917,-0.3206024169921875,-0.9244842529296875,-0.0022430419921875,2066850.649082917,0.260127454996109,-0.1737962961196899,-0.03985127434134483,2066850.632999917,145.7191009521484,68.32064819335938,-437.3597717285156,3
2023-02-19T21:11:35.229Z,352,2066850.671085917,-0.3066253662109375,-0.9390716552734375,0.00762939453125,2066850.669102917,0.2922425270080566,-0.08277903497219086,-0.04017165303230286,2066850.652683917,145.5596618652344,68.16908264160156,-437.1479797363281,3
2023-02-19T21:11:35.250Z,353,2066850.691105917,-0.3157501220703125,-0.9507904052734375,0.0120849609375,2066850.689091917,0.3310335874557495,-0.04750519990921021,-0.02178012952208519,2066850.672397917,145.6899261474609,68.58407592773438,-437.083740234375,3
2023-02-19T21:11:35.269Z,354,2066850.711124917,-0.310089111328125,-0.9634246826171875,0.0042877197265625,2066850.709110917,0.350234717130661,0.05398360639810562,-0.002981675090268254,2066850.692081917,145.7183532714844,68.72076416015625,-436.804931640625,3
2023-02-19T21:11:35.289Z,355,2066850.731113917,-0.315093994140625,-0.978118896484375,-0.0074310302734375,2066850.729130917,0.3358304798603058,0.1194185391068459,0.03161278739571571,2066850.711765917,145.4169769287109,68.67149353027344,-436.5223693847656,3
2023-02-19T21:11:35.310Z,356,2066850.751133917,-0.309783935546875,-0.9908294677734375,0.0141143798828125,2066850.749119917,0.2982948124408722,0.08771094679832458,0.06316192448139191,2066850.731479917,145.6438446044922,68.95225524902344,-436.5064392089844,3
2023-02-19T21:11:35.330Z,357,2066850.771152917,-0.2865753173828125,-0.99102783203125,0.0261077880859375,2066850.769138917,0.2414437830448151,0.1646616458892822,0.04228274151682854,2066850.751163917,145.3439788818359,69.00981140136719,-436.4072875976562,3
2023-02-19T21:11:35.350Z,358,2066850.791141917,-0.305206298828125,-0.981353759765625,0.0388336181640625,2066850.789158917,0.2108416557312012,0.2462894022464752,0.06483571976423264,2066850.770878917,145.3120422363281,69.01972961425781,-436.0499267578125,3
2023-02-19T21:11:35.370Z,359,2066850.811161917,-0.3099212646484375,-0.9831085205078125,0.013916015625,2066850.809147917,0.1630134135484695,0.3069652616977692,0.1263590008020401,2066850.790562917,145.1304473876953,69.38046264648438,-435.95361328125,3
2023-02-19T21:11:35.389Z,360,2066850.831150917,-0.2847442626953125,-0.9964752197265625,0.01080322265625,2066850.829166917,0.1232582852244377,0.2457405179738998,0.159186452627182,2066850.810276917,144.9958190917969,69.16841125488281,-435.9401550292969,3
2023-02-19T21:11:35.409Z,361,2066850.851169917,-0.2881927490234375,-0.9871978759765625,0.0197296142578125,2066850.849186917,0.08366879820823669,0.2387004643678665,0.2010899633169174,2066850.829960917,144.5848388671875,69.55844116210938,-435.7003784179688,3
2023-02-19T21:11:35.429Z,362,2066850.871189917,-0.2621917724609375,-0.97802734375,0.021881103515625,2066850.869175917,0.0436774380505085,0.2786595821380615,0.1806464791297913,2066850.849644917,144.6932525634766,69.46417236328125,-435.6993103027344,3
2023-02-19T21:11:35.450Z,363,2066850.891178917,-0.2687225341796875,-0.961883544921875,0.0244598388671875,2066850.889194917,0.01941417716443539,0.3019747734069824,0.1613127291202545,2066850.869358917,144.5412750244141,69.51382446289062,-435.6770935058594,3
2023-02-19T21:11:35.470Z,364,2066850.911197917,-0.28289794921875,-0.9574432373046875,0.0204315185546875,2066850.909214917,0.008202269673347473,0.2665414214134216,0.1761787533760071,2066850.889042917,144.2540893554688,69.73880004882812,-435.8598022460938,3
2023-02-19T21:11:35.490Z,365,2066850.931217917,-0.2721710205078125,-0.948028564453125,0.0304718017578125,2066850.929203917,0.02302941866219044,0.2342087775468826,0.1731195896863937,2066850.908756917,144.2178802490234,69.64300537109375,-435.9030456542969,3
2023-02-19T21:11:35.510Z,366,2066850.951206917,-0.27789306640625,-0.9341888427734375,0.0218048095703125,2066850.949222917,0.04199538752436638,0.2186806797981262,0.1489141136407852,2066850.928440917,144.2357482910156,69.46409606933594,-435.7221069335938,3
2023-02-19T21:11:35.530Z,367,2066850.971226917,-0.274932861328125,-0.9430694580078125,0.0139617919921875,2066850.969211917,0.06308495998382568,0.2353866845369339,0.09947279095649719,2066850.948154917,144.0284271240234,69.52177429199219,-435.5103149414062,3
2023-02-19T21:11:35.550Z,368,2066850.991245917,-0.2989959716796875,-0.9498291015625,0.0045318603515625,2066850.989231917,0.07929615676403046,0.2475573271512985,0.07314052432775497,2066850.967869917,143.9575042724609,69.71009826660156,-435.43798828125,3
2023-02-19T21:11:35.570Z,369,2066851.011234917,-0.280792236328125,-0.9540863037109375,0.0009002685546875,2066851.009250917,0.06780008971691132,0.2181847989559174,0.01064572017639875,2066850.987552917,143.7332763671875,69.88282775878906,-435.7305908203125,3
2023-02-19T21:11:35.590Z,370,2066851.031254917,-0.2747344970703125,-0.953277587890625,0.0013885498046875,2066851.029239917,0.04812225699424744,0.1928860992193222,-0.0642801895737648,2066851.007267917,143.5275573730469,69.90362548828125,-435.7197875976562,3
2023-02-19T21:11:35.610Z,371,2066851.051273917,-0.2968597412109375,-0.9500274658203125,0.0171966552734375,2066851.049259917,0.03280215337872505,0.1711850613355637,-0.09429321438074112,2066851.026951917,143.6817016601562,69.74734497070312,-435.9815063476562,3
2023-02-19T21:11:35.629Z,372,2066851.071262917,-0.2909393310546875,-0.949676513671875,0.018768310546875,2066851.069279917,0.01572277024388313,0.1296237707138062,-0.1173458024859428,2066851.046665917,143.5236358642578,69.72647094726562,-435.5167846679688,3
2023-02-19T21:11:35.650Z,373,2066851.091282917,-0.308563232421875,-0.9473114013671875,0.024261474609375,2066851.089268917,0.01064944826066494,0.06209905818104744,-0.1052691638469696,2066851.066349917,143.7119293212891,69.73979187011719,-435.72216796875,3
2023-02-19T21:11:35.670Z,374,2066851.111301917,-0.2882080078125,-0.95050048828125,0.0239105224609375,2066851.109287917,0.01396215427666903,0.007823302410542965,-0.1153793260455132,2066851.086033917,143.6965789794922,69.61839294433594,-436.0327758789062,3
2023-02-19T21:11:35.690Z,375,2066851.131290917,-0.300933837890625,-0.9520721435546875,0.0365753173828125,2066851.129307917,0.03553802147507668,-0.07615522295236588,-0.09426897764205933,2066851.105717917,143.6668701171875,69.79730224609375,-435.9571228027344,3
2023-02-19T21:11:35.710Z,376,2066851.151310917,-0.3008270263671875,-0.9506988525390625,0.0371856689453125,2066851.149296917,0.05285841971635818,-0.125970184803009,-0.07294131815433502,2066851.125431917,143.6851043701172,69.74729919433594,-435.7752075195312,3
2023-02-19T21:11:35.730Z,377,2066851.171329917,-0.3056488037109375,-0.9463958740234375,0.0341339111328125,2066851.169315917,0.05674397200345993,-0.1624829173088074,-0.06471294909715652,2066851.145115917,143.7317199707031,69.46661376953125,-435.9439086914062,3
2023-02-19T21:11:35.750Z,378,2066851.191318917,-0.295928955078125,-0.953369140625,0.0434722900390625,2066851.189335917,0.07271335273981094,-0.1935838460922241,-0.07062649726867676,2066851.164799917,144.13134765625,69.59773254394531,-435.555908203125,3
2023-02-19T21:11:35.770Z,379,2066851.211338917,-0.3041534423828125,-0.9583282470703125,0.051513671875,2066851.209324917,0.08206557482481003,-0.2494713515043259,-0.0628117173910141,2066851.184482917,144.2501831054688,69.82582092285156,-435.5689697265625,3
2023-02-19T21:11:35.790Z,380,2066851.231357917,-0.29833984375,-0.954498291015625,0.0501861572265625,2066851.229343917,0.07321535795927048,-0.2797245979309082,-0.06590338051319122,2066851.204166917,143.999755859375,69.92311096191406,-435.5071411132812,3
2023-02-19T21:11:35.810Z,381,2066851.251346917,-0.297393798828125,-0.946624755859375,0.0492095947265625,2066851.249363917,0.06807838380336761,-0.2591990828514099,-0.07400525361299515,2066851.223881917,144.1267242431641,69.58197021484375,-435.4482116699219,3
2023-02-19T21:11:35.830Z,382,2066851.271366917,-0.3037872314453125,-0.9485626220703125,0.053955078125,2066851.269352917,0.07911878824234009,-0.2552397549152374,-0.04387158527970314,2066851.243564917,144.2022094726562,69.6773681640625,-435.4699096679688,3
2023-02-19T21:11:35.850Z,383,2066851.291355917,-0.3006744384765625,-0.9544677734375,0.048980712890625,2066851.289371917,0.1038065552711487,-0.2559473514556885,-0.0115333516150713,2066851.263248917,144.3990783691406,69.70114135742188,-435.5110473632812,3
2023-02-19T21:11:35.870Z,384,2066851.311374917,-0.29388427734375,-0.9573974609375,0.0516815185546875,2066851.309391917,0.1161423176527023,-0.2951871752738953,0.01222790405154228,2066851.282963917,144.4825744628906,69.67684936523438,-435.2081909179688,3
2023-02-19T21:11:35.890Z,385,2066851.331394917,-0.28228759765625,-0.9528350830078125,0.0596923828125,2066851.329380917,0.1028890982270241,-0.3114425837993622,0.009157812222838402,2066851.302646917,144.3663482666016,69.45887756347656,-434.9906005859375,3
2023-02-19T21:11:35.910Z,386,2066851.351383917,-0.28607177734375,-0.9492950439453125,0.068359375,2066851.349399917,0.07787668704986572,-0.2564504146575928,-0.005350823048502207,2066851.322361917,144.783935546875,69.99211120605469,-434.7091674804688,3
2023-02-19T21:11:35.930Z,387,2066851.371403917,-0.2813262939453125,-0.946868896484375,0.0666656494140625,2066851.369419917,0.04629905521869659,-0.199533075094223,-0.02512159757316113,2066851.342045917,144.6117858886719,70.10165405273438,-434.8049926757812,3
2023-02-19T21:11:35.950Z,388,2066851.391422917,-0.2818756103515625,-0.9511260986328125,0.06744384765625,2066851.389408917,0.008101069368422031,-0.1935199350118637,-0.03523042425513268,2066851.381443917,144.7833251953125,69.9322509765625,-434.5761108398438,3
2023-02-19T21:11:35.970Z,389,2066851.411411917,-0.2723236083984375,-0.950927734375,0.069671630859375,2066851.409427917,-0.02243739925324917,-0.1721145063638687,-0.0543694980442524,2066851.401127917,144.9958953857422,69.95162963867188,-434.3265991210938,3
2023-02-19T21:11:35.990Z,390,2066851.4314095,-0.2759246826171875,-0.954010009765625,0.067626953125,2066851.4293945,-0.04672116786241531,-0.1343048065900803,-0.06256111711263657,2066851.4208195,144.9850158691406,69.86331176757812,-434.82958984375,3
2023-02-19T21:11:36.010Z,391,2066851.4514285,-0.2852325439453125,-0.9550323486328125,0.0698089599609375,2066851.4494145,-0.05958529934287071,-0.1177673786878586,-0.04593659937381744,2066851.4405035,145.2576904296875,69.974853515625,-434.6557922363281,3
2023-02-19T21:11:36.030Z,392,2066851.4714175,-0.2833709716796875,-0.9567718505859375,0.0715789794921875,2066851.4694345,-0.05908862128853798,-0.08875010907649994,-0.03693884238600731,2066851.4602175,145.1085510253906,70.02519226074219,-434.8014526367188,3
2023-02-19T21:11:36.050Z,393,2066851.4914375,-0.286865234375,-0.9582672119140625,0.0730438232421875,2066851.4894235,-0.05701641365885735,-0.05728326365351677,-0.01730761677026749,2066851.4799325,144.9886169433594,70.10501098632812,-434.5325927734375,3
2023-02-19T21:11:36.070Z,394,2066851.5114565,-0.2793731689453125,-0.9577178955078125,0.076873779296875,2066851.5094425,-0.0601072795689106,-0.03637957945466042,-0.01756754145026207,2066851.4996465,145.0869140625,70.03146362304688,-434.621826171875,3
2023-02-19T21:11:36.090Z,395,2066851.5314455,-0.283294677734375,-0.9566650390625,0.0770416259765625,2066851.5294625,-0.06189186498522758,-0.001614940818399191,-0.01526923384517431,2066851.5193305,145.0054626464844,70.1953125,-434.5532836914062,3
2023-02-19T21:11:36.110Z,396,2066851.5514655,-0.2948455810546875,-0.9553680419921875,0.0794830322265625,2066851.5494515,-0.05753493309020996,-0.001582982949912548,0.006444583646953106,2066851.5390445,145.1592712402344,69.93275451660156,-434.533935546875,3
2023-02-19T21:11:36.130Z,397,2066851.5714845,-0.2998199462890625,-0.9578399658203125,0.083984375,2066851.5694705,-0.03768479451537132,0.0181752759963274,0.03286740183830261,2066851.5587585,145.3396453857422,70.06195068359375,-434.589111328125,3
2023-02-19T21:11:36.150Z,398,2066851.5914735,-0.292388916015625,-0.9622039794921875,0.0776519775390625,2066851.5894905,-0.0201026052236557,0.02912113443017006,0.03934207931160927,2066851.5784425,145.0001068115234,70.16415405273438,-434.7584838867188,3
2023-02-19T21:11:36.170Z,399,2066851.6114935,-0.3017578125,-0.9632415771484375,0.07879638671875,2066851.6094795,-0.002184591023251414,0.03450711071491241,0.05756822228431702,2066851.5981575,144.9335021972656,70.03009033203125,-434.7482299804688,3
2023-02-19T21:11:36.190Z,400,2066851.6315125,-0.2982330322265625,-0.9625701904296875,0.0791778564453125,2066851.6294985,0.009995908476412296,0.02115828171372414,0.06875642389059067,2066851.6178715,144.9983673095703,69.90478515625,-434.5374145507812,3
2023-02-19T21:11:36.210Z,401,2066851.6515015,-0.29388427734375,-0.95880126953125,0.0774993896484375,2066851.6495185,0.01740961708128452,0.04183666408061981,0.06426767259836197,2066851.6375855,145.0139007568359,69.99502563476562,-434.7956848144531,3
2023-02-19T21:11:36.230Z,402,2066851.6715215,-0.291107177734375,-0.96075439453125,0.07537841796875,2066851.6695075,0.02477485500276089,0.04490995034575462,0.05393087491393089,2066851.6573005,145.2427215576172,70.08790588378906,-434.4876708984375,3
2023-02-19T21:11:36.250Z,403,2066851.6915405,-0.299072265625,-0.9622344970703125,0.074554443359375,2066851.6895265,0.03959987312555313,0.02267575077712536,0.06438138335943222,2066851.6770145,144.9786987304688,70.02420043945312,-434.5947265625,3
2023-02-19T21:11:36.270Z,404,2066851.7115295,-0.30133056640625,-0.960205078125,0.0740966796875,2066851.7095465,0.0471147820353508,0.009668073616921902,0.06772258877754211,2066851.6967285,144.85888671875,70.0196533203125,-434.8056030273438,3
2023-02-19T21:11:36.290Z,405,2066851.7315495,-0.2887420654296875,-0.9559478759765625,0.0801239013671875,2066851.7295355,0.05267466232180595,0.02003176510334015,0.045876145362854,2066851.7164125,144.6419677734375,70.15055847167969,-434.3722229003906,3
2023-02-19T21:11:36.310Z,406,2066851.7515385,-0.292388916015625,-0.9530487060546875,0.07763671875,2066851.7495545,0.05503688752651215,0.02733974531292915,0.03066044114530087,2066851.7361275,144.9077453613281,70.39375305175781,-434.5936889648438,3
2023-02-19T21:11:36.330Z,407,2066851.7715585,-0.30078125,-0.9519500732421875,0.0848236083984375,2066851.7695745,0.06276964396238327,0.009154349565505981,0.03843367472290993,2066851.7558415,145.0550994873047,70.46633911132812,-434.8033142089844,3
2023-02-19T21:11:36.350Z,408,2066851.7915775,-0.294464111328125,-0.9490203857421875,0.0905914306640625,2066851.7895635,0.06837106496095657,0.001639441936276853,0.03087109699845314,2066851.7755255,144.8459167480469,70.14483642578125,-434.64599609375,3
2023-02-19T21:11:36.370Z,409,2066851.8115665,-0.2870635986328125,-0.9465484619140625,0.0887603759765625,2066851.8095825,0.05483315512537956,-0.01031468901783228,0.009421464987099171,2066851.7952395,144.6852111816406,70.38752746582031,-434.4383544921875,3
2023-02-19T21:11:36.390Z,410,2066851.8315865,-0.2973785400390625,-0.9442138671875,0.091522216796875,2066851.8296025,0.05161365866661072,-0.001665008254349232,0.004259992390871048,2066851.8149545,144.6271209716797,70.27168273925781,-434.3258056640625,3
2023-02-19T21:11:36.410Z,411,2066851.8516055,-0.29510498046875,-0.9459381103515625,0.09912109375,2066851.8495915,0.0567261315882206,-0.02874403074383736,0.008170045912265778,2066851.8346375,144.8718719482422,70.32704162597656,-434.4343872070312,3
2023-02-19T21:11:36.430Z,412,2066851.8715945,-0.2826080322265625,-0.947998046875,0.0991058349609375,2066851.8696115,0.05486271530389786,-0.05231886357069016,-0.009939982555806637,2066851.8543525,144.6427154541016,70.37388610839844,-434.2717590332031,3
2023-02-19T21:11:36.450Z,413,2066851.8916145,-0.291412353515625,-0.9441680908203125,0.0928955078125,2066851.8896005,0.0352914109826088,-0.05789445713162422,-0.01692332327365875,2066851.8740665,144.7000732421875,70.42826843261719,-434.3258666992188,3
2023-02-19T21:11:36.470Z,414,2066851.9116335,-0.2954559326171875,-0.9461517333984375,0.0991668701171875,2066851.9096195,0.02942446805536747,-0.06578247249126434,-0.01375948823988438,2066851.8937505,144.7026519775391,70.3670654296875,-433.9332885742188,3
2023-02-19T21:11:36.490Z,415,2066851.9316225,-0.29119873046875,-0.9507598876953125,0.0969390869140625,2066851.9296395,0.0242329016327858,-0.0782170370221138,-0.02280997484922409,2066851.9134645,144.8257446289062,70.36996459960938,-434.2361450195312,3
2023-02-19T21:11:36.510Z,416,2066851.9516425,-0.2920074462890625,-0.95391845703125,0.0944976806640625,2066851.9496285,0.02041286416351795,-0.05809286236763,-0.03279389813542366,2066851.9331795,144.7631530761719,70.55520629882812,-434.3258056640625,3
2023-02-19T21:11:36.530Z,417,2066851.9716615,-0.28839111328125,-0.9552154541015625,0.101409912109375,2066851.9696475,0.01809804327785969,-0.07943516969680786,-0.0369873121380806,2066851.9528635,144.8202667236328,70.35516357421875,-433.8920288085938,3
2023-02-19T21:11:36.550Z,418,2066851.9916505,-0.2994537353515625,-0.9500274658203125,0.10687255859375,2066851.9896675,0.01638669706881046,-0.07600235939025879,-0.01941204816102982,2066851.9725775,144.7935333251953,70.27421569824219,-433.8716125488281,3
2023-02-19T21:11:36.570Z,419,2066852.0116705,-0.2906646728515625,-0.9496002197265625,0.107513427734375,2066852.0096565,0.006538593210279942,-0.05656900256872177,-0.02181927859783173,2066851.9922915,144.8723754882812,70.24453735351562,-434.103271484375,3
2023-02-19T21:11:36.590Z,420,2066852.0316895,-0.2862701416015625,-0.957855224609375,0.109527587890625,2066852.0296755,0.007337807677686214,-0.04212960973381996,-0.0275432113558054,2066852.0119755,144.9900817871094,70.398193359375,-434.1184692382812,3
2023-02-19T21:11:36.610Z,421,2066852.0516785,-0.2913665771484375,-0.9582061767578125,0.1066436767578125,2066852.0496955,0.005690376274287701,-0.06007691845297813,-0.0142905218526721,2066852.0316595,145.0484008789062,70.41621398925781,-434.0074157714844,3
2023-02-19T21:11:36.630Z,422,2066852.0716985,-0.2908935546875,-0.95343017578125,0.1094207763671875,2066852.0696845,-0.0008423578692600131,-0.08965957909822464,0.001298823626711965,2066852.0513735,144.9438323974609,70.29341125488281,-433.8731079101562,3
2023-02-19T21:11:36.650Z,423,2066852.0917175,-0.2859954833984375,-0.9472808837890625,0.111907958984375,2066852.0897035,-0.006424343679100275,-0.06892287731170654,0.0001025317033054307,2066852.0710575,145.0589599609375,70.41374206542969,-433.8679809570312,3
2023-02-19T21:11:36.670Z,424,2066852.1117065,-0.2866668701171875,-0.9506683349609375,0.10894775390625,2066852.1097235,-0.01555871963500977,-0.04952147975564003,0.003025084733963013,2066852.0907715,145.1022644042969,70.46310424804688,-433.8165283203125,3
2023-02-19T21:11:36.690Z,425,2066852.1317265,-0.294219970703125,-0.9562530517578125,0.1079559326171875,2066852.1297125,-0.002304699504747987,-0.03575773164629936,0.01446149684488773,2066852.1104555,145.1471099853516,70.43403625488281,-433.9380187988281,3
2023-02-19T21:11:36.710Z,426,2066852.1517465,-0.29730224609375,-0.9553680419921875,0.1091156005859375,2066852.1497315,0.005310076754540205,-0.04946981370449066,0.0332287922501564,2066852.1301705,144.9780578613281,70.343505859375,-434.1072387695312,3
2023-02-19T21:11:36.730Z,427,2066852.1717355,-0.285675048828125,-0.9498291015625,0.106842041015625,2066852.1697515,0.0007978830835781991,-0.02482119388878345,0.01585166715085506,2066852.1498535,145.0494384765625,70.70573425292969,-433.8544921875,3
2023-02-19T21:11:36.750Z,428,2066852.1917545,-0.27972412109375,-0.9517364501953125,0.1042938232421875,2066852.1897405,-0.01643223688006401,0.006474144756793976,-0.01075597479939461,2066852.1695685,144.8340454101562,70.41583251953125,-434.0225524902344,3
2023-02-19T21:11:36.770Z,429,2066852.2117435,-0.295257568359375,-0.952484130859375,0.11065673828125,2066852.2097595,-0.02303820662200451,0.01163029111921787,0.004005128052085638,2066852.1892825,145.0179595947266,70.32247924804688,-433.7061157226562,3
2023-02-19T21:11:36.790Z,430,2066852.2317635,-0.2863616943359375,-0.952239990234375,0.1096343994140625,2066852.2297795,-0.02748089283704758,0.01074958313256502,0.009136239998042583,2066852.2089665,144.9527587890625,70.37155151367188,-434.0690002441406,3
2023-02-19T21:11:36.810Z,431,2066852.2517825,-0.290283203125,-0.9510955810546875,0.1117095947265625,2066852.2497685,-0.03183063492178917,0.002503104973584414,0.01036422420293093,2066852.2286805,144.9610900878906,70.39727783203125,-433.8843383789062,3
2023-02-19T21:11:36.830Z,432,2066852.2717715,-0.2857513427734375,-0.952484130859375,0.106414794921875,2066852.2697885,-0.03813700005412102,0.02810274064540863,0.007916779257357121,2066852.2483955,144.9790496826172,70.34718322753906,-433.9170532226562,3
2023-02-19T21:11:36.850Z,433,2066852.2917915,-0.2843475341796875,-0.9563446044921875,0.1109771728515625,2066852.2898075,-0.03691966831684113,0.01125478465110064,0.008700015023350716,2066852.2681095,144.8926239013672,70.30458068847656,-434.2295227050781,3
2023-02-19T21:11:36.870Z,434,2066852.3118105,-0.2939453125,-0.9515838623046875,0.100677490234375,2066852.3097965,-0.0378003753721714,-0.004326038993895054,0.02969158254563808,2066852.2877935,144.8184661865234,70.63246154785156,-434.1124267578125,3
2023-02-19T21:11:36.890Z,435,2066852.3317995,-0.2857208251953125,-0.949371337890625,0.103302001953125,2066852.3298165,-0.03410524129867554,-0.01117489021271467,0.02603053487837315,2066852.3075075,144.9225311279297,70.44163513183594,-433.8304443359375,3
2023-02-19T21:11:36.910Z,436,2066852.3518195,-0.2931060791015625,-0.9509735107421875,0.103240966796875,2066852.3498055,-0.02835174649953842,-0.001998702296987176,0.02490801364183426,2066852.3272225,144.9858551025391,70.705078125,-433.8954162597656,3
2023-02-19T21:11:36.930Z,437,2066852.3718385,-0.3004608154296875,-0.95269775390625,0.1000518798828125,2066852.3698245,-0.01901496946811676,0.005842176266014576,0.03202957287430763,2066852.3469365,144.7332916259766,70.38236999511719,-434.1450805664062,3
2023-02-19T21:11:36.950Z,438,2066852.3918275,-0.297332763671875,-0.955718994140625,0.094757080078125,2066852.3898445,-0.01813053339719772,0.002695385366678238,0.03097416087985039,2066852.3666205,144.7125396728516,70.64120483398438,-433.9652709960938,3
2023-02-19T21:11:36.970Z,439,2066852.4118475,-0.3031005859375,-0.955596923828125,0.1005401611328125,2066852.4098335,-0.008881642483174801,-0.003838414093479514,0.0375891886651516,2066852.3863345,144.7889709472656,70.526123046875,-433.9429321289062,3
2023-02-19T21:11:36.990Z,440,2066852.431848625,-0.30078125,-0.9527130126953125,0.098968505859375,2066852.429834625,-0.006536462344229221,-0.004055195488035679,0.04214825108647346,2066852.4060495,144.7952728271484,70.43437194824219,-434.198486328125,3
2023-02-19T21:11:37.010Z,441,2066852.451837625,-0.2949981689453125,-0.9506683349609375,0.1025543212890625,2066852.449854625,0.0002031991898547858,-0.006493585649877787,0.03439179435372353,2066852.425714625,144.9945831298828,70.56968688964844,-434.1216430664062,3
2023-02-19T21:11:37.030Z,442,2066852.471857625,-0.298309326171875,-0.94854736328125,0.0992279052734375,2066852.469843625,-0.0007691209320910275,-0.01072241924703121,0.03278697654604912,2066852.445429625,144.7248077392578,70.40802001953125,-434.0307922363281,3
2023-02-19T21:11:37.050Z,443,2066852.491876625,-0.295257568359375,-0.9483642578125,0.1019287109375,2066852.489862625,0.004625910893082619,-0.02731258049607277,0.03044898621737957,2066852.465143625,144.8336639404297,70.49034118652344,-434.2329406738281,3
2023-02-19T21:11:37.070Z,444,2066852.511865625,-0.29876708984375,-0.9484405517578125,0.1026611328125,2066852.509882625,0.0007395598222501576,-0.05868781358003616,0.03318751603364944,2066852.484827625,144.7022552490234,70.58583068847656,-434.1225891113281,3
2023-02-19T21:11:37.090Z,445,2066852.531885625,-0.2917633056640625,-0.9480133056640625,0.1001739501953125,2066852.529871625,-0.004290352575480938,-0.0518014132976532,0.01913774199783802,2066852.504541625,144.8367919921875,70.72122192382812,-434.009521484375,3
2023-02-19T21:11:37.110Z,446,2066852.551905625,-0.2955169677734375,-0.9480438232421875,0.0999908447265625,2066852.549890625,0.002251436468213797,-0.03921318426728249,0.0157142486423254,2066852.524256625,144.7396087646484,70.60806274414062,-433.9234619140625,3
2023-02-19T21:11:37.130Z,447,2066852.571894625,-0.3032989501953125,-0.94598388671875,0.10150146484375,2066852.569910625,0.02058117464184761,-0.06905310600996017,0.03587144985795021,2066852.543970625,144.85693359375,70.51939392089844,-434.0821533203125,3
2023-02-19T21:11:37.150Z,448,2066852.591913625,-0.2984161376953125,-0.9427337646484375,0.105316162109375,2066852.589899625,0.0268931332975626,-0.09520268440246582,0.04131601378321648,2066852.563654625,144.8445739746094,70.43203735351562,-434.1968994140625,3
2023-02-19T21:11:37.170Z,449,2066852.611933625,-0.2947540283203125,-0.9408111572265625,0.108642578125,2066852.609918625,0.01620560139417648,-0.0917016938328743,0.02641589380800724,2066852.583368625,145.0383605957031,70.71217346191406,-433.9718017578125,3
2023-02-19T21:11:37.190Z,450,2066852.631922625,-0.2926788330078125,-0.94049072265625,0.1068878173828125,2066852.629938625,0.001199754071421921,-0.07559622079133987,0.0090542146936059,2066852.603083625,144.8299713134766,70.68258666992188,-433.9063110351562,3
2023-02-19T21:11:37.210Z,451,2066852.651941625,-0.2966461181640625,-0.9438934326171875,0.1052093505859375,2066852.649927625,-0.004465588368475437,-0.08086156100034714,0.0007805725326761603,2066852.622797625,145.1922302246094,70.58995056152344,-433.9119873046875,3
2023-02-19T21:11:37.230Z,452,2066852.671930625,-0.3021087646484375,-0.9469451904296875,0.1072845458984375,2066852.669947625,0.008562595583498478,-0.09875800460577011,0.006946056615561247,2066852.642481625,144.974609375,70.52107238769531,-433.891845703125,3
2023-02-19T21:11:37.250Z,453,2066852.691950625,-0.30841064453125,-0.9466552734375,0.104400634765625,2066852.689966625,0.01042015012353659,-0.100767619907856,0.02186801470816135,2066852.681879625,145.1685943603516,70.50177001953125,-433.7220153808594,3
2023-02-19T21:11:37.270Z,454,2066852.711969625,-0.302490234375,-0.9445343017578125,0.1104278564453125,2066852.709955625,0.01013545878231525,-0.09356430172920227,0.01939207315444946,2066852.701563625,144.8480224609375,70.76948547363281,-433.8764343261719,3
2023-02-19T21:11:37.290Z,455,2066852.731958625,-0.29510498046875,-0.9449462890625,0.1087188720703125,2066852.729975625,-0.002700179116800427,-0.08525151759386063,0.002894589677453041,2066852.721277625,145.1728057861328,70.50398254394531,-433.6488037109375,3
2023-02-19T21:11:37.310Z,456,2066852.751978625,-0.2982635498046875,-0.9473876953125,0.1093597412109375,2066852.749994625,-0.009890447370707989,-0.08327624946832657,-0.006345513742417097,2066852.740991625,145.1524200439453,70.68966674804688,-433.6600341796875,3
2023-02-19T21:11:37.330Z,457,2066852.771997625,-0.302001953125,-0.9484100341796875,0.10626220703125,2066852.769983625,-0.009810020215809345,-0.08962975442409515,-0.004728442523628473,2066852.760706625,145.1036071777344,70.77037048339844,-433.4249877929688,3
2023-02-19T21:11:37.350Z,458,2066852.791986625,-0.3082122802734375,-0.9459991455078125,0.1099395751953125,2066852.790003625,-0.007208910770714283,-0.09583438187837601,0.01546231284737587,2066852.780420625,145.1876983642578,70.70497131347656,-433.8392944335938,3
2023-02-19T21:11:37.370Z,459,2066852.812006625,-0.3023834228515625,-0.94940185546875,0.107177734375,2066852.809992625,0.007414773106575012,-0.07220708578824997,0.01555685512721539,2066852.800104625,145.2331390380859,70.87113952636719,-433.5867309570312,3
2023-02-19T21:11:37.390Z,460,2066852.832025625,-0.3030242919921875,-0.950439453125,0.1100006103515625,2066852.830011625,0.01058420073240995,-0.08244241029024124,0.01650520786643028,2066852.819818625,145.1999969482422,70.86705017089844,-433.5079956054688,3
2023-02-19T21:11:37.410Z,461,2066852.852014625,-0.3100433349609375,-0.949432373046875,0.11517333984375,2066852.850031625,0.00640942994505167,-0.08409410715103149,0.02599751204252243,2066852.839502625,144.9805450439453,70.59089660644531,-433.6373291015625,3
2023-02-19T21:11:37.430Z,462,2066852.872034625,-0.3018646240234375,-0.9469451904296875,0.1194305419921875,2066852.870020625,-0.001881256932392716,-0.0663774237036705,0.01694702543318272,2066852.859217625,145.2880554199219,70.87110900878906,-433.5800170898438,3
2023-02-19T21:11:37.450Z,463,2066852.892053625,-0.3005828857421875,-0.9480133056640625,0.1234893798828125,2066852.890039625,-0.004377171397209167,-0.04653101786971092,-0.00233772280625999,2066852.878900625,145.0252685546875,70.76040649414062,-433.578369140625,3
2023-02-19T21:11:37.470Z,464,2066852.912042625,-0.3065338134765625,-0.9541778564453125,0.115234375,2066852.910059625,-0.008930910378694534,-0.0213811881840229,-0.00469648465514183,2066852.898615625,145.0115356445312,70.85943603515625,-433.5697631835938,3
2023-02-19T21:11:37.490Z,465,2066852.932062625,-0.3166351318359375,-0.9680938720703125,0.1072540283203125,2066852.930048625,-0.01014904025942087,-0.004548679105937481,0.005990248173475266,2066852.918299625,145.2961120605469,70.58999633789062,-433.5010986328125,3
2023-02-19T21:11:37.510Z,466,2066852.952082625,-0.336669921875,-0.9916229248046875,0.09716796875,2066852.950067625,-0.01534140575677156,0.01350382436066866,0.03279789537191391,2066852.937982625,145.1631011962891,70.84005737304688,-433.4247436523438,3
2023-02-19T21:11:37.530Z,467,2066852.972071625,-0.329986572265625,-1.048080444335938,0.073822021484375,2066852.970087625,-0.04912759736180305,0.06496594846248627,-0.004705006722360849,2066852.957697625,145.1465301513672,70.74378967285156,-433.5614013671875,3
2023-02-19T21:11:37.550Z,468,2066852.992090625,-0.3463897705078125,-1.113327026367188,0.0699310302734375,2066852.990076625,-0.1263265162706375,0.07097537070512772,-0.04644446447491646,2066852.977381625,145.1894683837891,70.75436401367188,-433.7433471679688,3
2023-02-19T21:11:37.570Z,469,2066853.012110625,-0.424835205078125,-1.160125732421875,0.0628204345703125,2066853.010095625,-0.2134995013475418,0.1062646508216858,0.0266537144780159,2066852.997095625,145.1857452392578,70.72544860839844,-433.8169555664062,3
2023-02-19T21:11:37.590Z,470,2066853.032099625,-0.4873199462890625,-1.236526489257812,0.042449951171875,2066853.030115625,-0.3066470324993134,0.1804185062646866,0.1794006526470184,2066853.016809625,145.0418243408203,70.55844116210938,-433.9122924804688,3
2023-02-19T21:11:37.610Z,471,2066853.052118625,-0.5326385498046875,-1.351486206054688,0.0603179931640625,2066853.050104625,-0.3799689114093781,0.1525077819824219,0.3647524118423462,2066853.036493625,144.8692474365234,70.516357421875,-434.1898193359375,3
2023-02-19T21:11:37.631Z,472,2066853.072138625,-0.553802490234375,-1.396087646484375,0.076904296875,2066853.070124625,-0.4829325675964355,0.04265904799103737,0.5290864706039429,2066853.056208625,144.3537139892578,70.57528686523438,-434.3395690917969,3
2023-02-19T21:11:37.650Z,473,2066853.092127625,-0.5379791259765625,-1.370895385742188,0.031646728515625,2066853.090143625,-0.662736713886261,0.2086999416351318,0.589006245136261,2066853.075891625,144.2521362304688,70.70066833496094,-434.6760864257812,3
2023-02-19T21:11:37.670Z,474,2066853.112146625,-0.5736083984375,-1.364547729492188,-0.0125732421875,2066853.110132625,-0.7952289581298828,0.3917805552482605,0.6320722699165344,2066853.095606625,143.5854187011719,70.32537841796875,-435.231201171875,3
