loggingTime(txt),loggingSample(N),accelerometerTimestamp_sinceReboot(s),accelerometerAccelerationX(G),accelerometerAccelerationY(G),accelerometerAccelerationZ(G),gyroTimestamp_sinceReboot(s),gyroRotationX(rad/s),gyroRotationY(rad/s),gyroRotationZ(rad/s),magnetometerTimestamp_sinceReboot(s),magnetometerX(µT),magnetometerY(µT),magnetometerZ(µT),label(N)
2023-02-13T13:25:53.459Z,1,1757618.968574917,-0.0050201416015625,-0.1876678466796875,-0.9659423828125,1757618.949555917,-0.489364355802536,0.3896004855632782,0.004462126176804304,1757618.941315917,107.3690338134766,120.2160491943359,-483.8184204101562,0
2023-02-13T13:25:53.468Z,2,1757618.988563917,0.0058746337890625,-0.1690521240234375,-0.9596710205078125,1757618.989563917,-0.03194062411785126,-0.03788053616881371,-0.01185266487300396,1757618.960907917,107.6340637207031,120.4164581298828,-484.1607055664062,0
2023-02-13T13:25:53.488Z,3,1757619.008583917,-0.0092620849609375,-0.171539306640625,-0.9755706787109375,1757618.989563917,-0.03194062411785126,-0.03788053616881371,-0.01185266487300396,1757618.980500917,107.576416015625,120.7055206298828,-484.6301879882812,0
2023-02-13T13:25:53.511Z,4,1757619.028602917,-0.031951904296875,-0.18280029296875,-0.9761199951171875,1757619.029602917,0.1213570535182953,-0.08122295141220093,-0.03842195868492126,1757619.000092917,107.6499938964844,120.6688842773438,-483.938720703125,0
2023-02-13T13:25:53.528Z,5,1757619.048591917,-0.0383758544921875,-0.1931610107421875,-0.9814300537109375,1757619.029602917,0.1213570535182953,-0.08122295141220093,-0.03842195868492126,1757619.039277917,107.3242645263672,120.4306488037109,-484.1351318359375,0
2023-02-13T13:25:53.554Z,6,1757619.068611917,-0.0301055908203125,-0.1927032470703125,-0.982757568359375,1757619.049591917,-0.002990197157487273,0.06702963262796402,-0.04966076463460922,1757619.058869917,107.3506622314453,120.6177673339844,-484.9205932617188,0
2023-02-13T13:25:53.568Z,7,1757619.088631917,-0.0194854736328125,-0.1808319091796875,-0.9736175537109375,1757619.069611917,-0.1297542601823807,0.1223818361759186,-0.06671617925167084,1757619.078461917,107.5771026611328,120.6848754882812,-484.2045593261719,0
2023-02-13T13:25:53.594Z,8,1757619.108650917,-0.0128326416015625,-0.1689910888671875,-0.9723663330078125,1757619.089631917,-0.1591976433992386,0.103080578148365,-0.07403747737407684,1757619.098053917,107.3793334960938,120.6433563232422,-484.0272521972656,0
2023-02-13T13:25:53.608Z,9,1757619.128639917,-0.00653076171875,-0.1599884033203125,-0.979217529296875,1757619.109650917,-0.09442104399204254,0.03765683248639107,-0.0727895200252533,1757619.117646917,107.5448913574219,120.7688293457031,-485.044677734375,0
2023-02-13T13:25:53.635Z,10,1757619.148659917,-0.01031494140625,-0.164947509765625,-0.9766693115234375,1757619.129639917,0.007656321860849857,-0.02562227286398411,-0.07801277935504913,1757619.137238917,107.8153076171875,120.7386779785156,-484.9567260742188,0
2023-02-13T13:25:53.648Z,11,1757619.168678917,-0.0075531005859375,-0.1668853759765625,-0.9822235107421875,1757619.149659917,0.03046656213700771,-0.02027837373316288,-0.04867832362651825,1757619.156830917,107.3748168945312,120.49951171875,-484.8041381835938,0
2023-02-13T13:25:53.676Z,12,1757619.188667917,-0.0157318115234375,-0.1613922119140625,-0.9784393310546875,1757619.169678917,-0.01441169623285532,0.01819205284118652,-0.03852315619587898,1757619.176423917,107.5786895751953,120.7029418945312,-484.3993530273438,0
2023-02-13T13:25:53.688Z,13,1757619.208687917,-0.0090484619140625,-0.15252685546875,-0.973968505859375,1757619.189667917,-0.02015267312526703,0.03904753550887108,-0.04199458658695221,1757619.196015917,107.6442108154297,120.4347839355469,-485.0174255371094,0
2023-02-13T13:25:53.715Z,14,1757619.228706917,0.00677490234375,-0.154266357421875,-0.96722412109375,1757619.209687917,-0.002871686592698097,0.04417571797966957,-0.03748665377497673,1757619.215607917,107.6825408935547,120.6351470947266,-484.1925048828125,0
2023-02-13T13:25:53.728Z,15,1757619.248726917,0.015594482421875,-0.1592559814453125,-0.9699859619140625,1757619.229706917,-0.006614759564399719,0.002259425818920135,-0.009910155087709427,1757619.235199917,107.5787353515625,120.7394104003906,-485.123291015625,0
2023-02-13T13:25:53.754Z,16,1757619.268715917,0.004425048828125,-0.1612396240234375,-0.9834442138671875,1757619.249726917,-0.01396002434194088,-0.03555266931653023,0.003060770919546485,1757619.254761917,107.3893890380859,120.4391784667969,-484.5092468261719,0
2023-02-13T13:25:53.768Z,17,1757619.288734917,-0.0009613037109375,-0.1615753173828125,-0.994140625,1757619.269715917,-0.03342746570706367,-4.76705827168189e-05,-0.001365935313515365,1757619.274353917,107.8167572021484,120.6241607666016,-484.7897338867188,0
2023-02-13T13:25:53.794Z,18,1757619.308754917,7.62939453125e-05,-0.1551055908203125,-0.9859771728515625,1757619.289734917,-0.05489946901798248,0.0517585352063179,-0.0002796319022309035,1757619.293946917,107.2436981201172,120.7373962402344,-484.63037109375,0
2023-02-13T13:25:53.808Z,19,1757619.328773917,0.0099334716796875,-0.1587677001953125,-0.9710693359375,1757619.309754917,-0.02179238013923168,0.09018608182668686,0.006901049055159092,1757619.313538917,107.6530609130859,120.7607116699219,-484.076904296875,0
2023-02-13T13:25:53.832Z,20,1757619.348762917,0.0151519775390625,-0.1533050537109375,-0.9729156494140625,1757619.329773917,0.01728018745779991,0.05179528519511223,0.002288188086822629,1757619.333130917,107.6454467773438,120.6256408691406,-485.114990234375,0
2023-02-13T13:25:53.848Z,21,1757619.368782917,0.008209228515625,-0.1566925048828125,-0.972900390625,1757619.349762917,0.04673022031784058,0.01962936110794544,-0.005884520709514618,1757619.352723917,107.6928405761719,120.6470336914062,-484.5750427246094,0
2023-02-13T13:25:53.869Z,22,1757619.388801917,0.0096893310546875,-0.1716156005859375,-0.9801483154296875,1757619.369782917,0.07939069718122482,-0.002271143719553947,0.01424178667366505,1757619.372315917,107.8118591308594,120.4757690429688,-484.7884216308594,0
2023-02-13T13:25:53.888Z,23,1757619.408790917,0.001739501953125,-0.1765594482421875,-0.9760284423828125,1757619.389801917,0.03635081648826599,0.01527216378599405,0.02936933934688568,1757619.391907917,107.6787261962891,120.6502532958984,-484.4973754882812,0
2023-02-13T13:25:53.910Z,24,1757619.428810917,-0.0084075927734375,-0.1764373779296875,-0.974609375,1757619.429810917,-0.1204686239361763,0.1272319853305817,-0.02578872069716454,1757619.411499917,107.7932891845703,120.53466796875,-484.585693359375,0
2023-02-13T13:25:53.928Z,25,1757619.448830917,0.01031494140625,-0.1714019775390625,-0.973541259765625,1757619.429810917,-0.1204686239361763,0.1272319853305817,-0.02578872069716454,1757619.431061917,107.7699584960938,120.3777618408203,-484.6290283203125,0
2023-02-13T13:25:53.948Z,26,1757619.468849917,0.019012451171875,-0.1663665771484375,-0.971710205078125,1757619.449830917,-0.06779928505420685,0.06937108188867569,-0.004687163513153791,1757619.450653917,108.079833984375,120.6632995605469,-485.032958984375,0
2023-02-13T13:25:53.968Z,27,1757619.488838917,0.0060577392578125,-0.1745147705078125,-0.97442626953125,1757619.469849917,0.04303748160600662,-0.0329078808426857,0.02423902601003647,1757619.470215917,108.0428466796875,120.7702941894531,-484.99462890625,0
2023-02-13T13:25:53.996Z,28,1757619.508858917,-0.008636474609375,-0.1761932373046875,-0.9831085205078125,1757619.489838917,0.05975041538476944,-0.05549628287553787,0.0346439965069294,1757619.489808917,108.1109313964844,120.6114654541016,-485.0247192382812,0
2023-02-13T13:25:54.009Z,29,1757619.528877917,-0.0105438232421875,-0.17779541015625,-0.980987548828125,1757619.509858917,0.001593369292095304,-0.03789438679814339,0.01415097247809172,1757619.509369917,107.8264923095703,120.6222991943359,-485.2464599609375,0
2023-02-13T13:25:54.030Z,30,1757619.548897917,-0.0083160400390625,-0.174468994140625,-0.9745635986328125,1757619.529877917,-0.02248666621744633,2.929477159341332e-05,0.0096273273229599,1757619.528931917,107.9328155517578,120.5711975097656,-484.9983520507812,0
2023-02-13T13:25:54.048Z,31,1757619.568886917,-0.0083465576171875,-0.1739654541015625,-0.9658355712890625,1757619.549897917,0.00896792858839035,-0.002777943387627602,0.03667439147830009,1757619.548523917,107.9654998779297,120.7496490478516,-484.6243591308594,0
2023-02-13T13:25:54.074Z,32,1757619.588905917,-0.0079498291015625,-0.179046630859375,-0.957366943359375,1757619.569886917,0.03673777356743813,-0.02819222398102283,0.03764830902218819,1757619.568116917,107.8053894042969,120.4135131835938,-484.8360595703125,0
2023-02-13T13:25:54.088Z,33,1757619.608925917,-0.00225830078125,-0.1788330078125,-0.9475860595703125,1757619.589905917,0.033169936388731,-0.02769714221358299,0.003045058343559504,1757619.587708917,107.8717803955078,120.5126953125,-485.159912109375,0
2023-02-13T13:25:54.113Z,34,1757619.628914917,0.010772705078125,-0.1836090087890625,-0.94091796875,1757619.609925917,0.04258207976818085,-0.01294243056327105,-0.02100781351327896,1757619.607300917,107.7857666015625,120.5403289794922,-484.7808837890625,0
2023-02-13T13:25:54.128Z,35,1757619.648933917,0.0169219970703125,-0.18389892578125,-0.938568115234375,1757619.629914917,0.02152180299162865,-0.01833613030612469,-0.04641330614686012,1757619.626862917,107.8004760742188,120.4052886962891,-484.1830444335938,0
2023-02-13T13:25:54.157Z,36,1757619.668953917,0.015472412109375,-0.179229736328125,-0.944854736328125,1757619.649933917,-0.03403093665838242,-0.04300152882933617,-0.07215408980846405,1757619.646454917,107.8075408935547,120.3793182373047,-485.0176391601562,0
2023-02-13T13:25:54.168Z,37,1757619.688972917,0.0013885498046875,-0.1739044189453125,-0.952423095703125,1757619.669953917,-0.1179061308503151,-0.0564880445599556,-0.07508969306945801,1757619.666047917,107.8981323242188,120.4495086669922,-484.552490234375,0
2023-02-13T13:25:54.197Z,38,1757619.708961917,-0.008514404296875,-0.1664276123046875,-0.9475250244140625,1757619.689972917,-0.1494478136301041,-0.02415407262742519,-0.05291647836565971,1757619.685639917,107.8199005126953,120.5283508300781,-485.0263671875,0
2023-02-13T13:25:54.208Z,39,1757619.728981917,0.0022430419921875,-0.1682586669921875,-0.9297027587890625,1757619.709961917,-0.09272967278957367,0.02428510040044785,-0.04626310244202614,1757619.705231917,107.5427703857422,120.4041595458984,-485.0456848144531,0
2023-02-13T13:25:54.239Z,40,1757619.749000917,0.0134735107421875,-0.1678009033203125,-0.90740966796875,1757619.729981917,-0.04334188252687454,0.002628007438033819,-0.03330522775650024,1757619.724823917,107.7493743896484,120.5676574707031,-484.6558227539062,0
2023-02-13T13:25:54.248Z,41,1757619.769020917,0.0096282958984375,-0.1785125732421875,-0.89447021484375,1757619.750000917,-0.0208956953138113,-0.06967335194349289,-0.01185266487300396,1757619.744416917,107.7440338134766,120.6612548828125,-484.2200927734375,0
2023-02-13T13:25:54.277Z,42,1757619.789009917,-0.0035858154296875,-0.1763458251953125,-0.9129791259765625,1757619.770020917,-0.08770162612199783,-0.1947194188833237,-0.008236357942223549,1757619.764008917,107.8076477050781,120.6261138916016,-484.6532592773438,0
2023-02-13T13:25:54.288Z,43,1757619.809028917,-0.0214080810546875,-0.170196533203125,-0.915802001953125,1757619.790009917,-0.230876088142395,-0.2242879569530487,-0.02451519668102264,1757619.783600917,107.5551300048828,120.9862213134766,-484.66748046875,0
2023-02-13T13:25:54.316Z,44,1757619.829048917,-0.0182037353515625,-0.1634063720703125,-0.9017486572265625,1757619.810028917,-0.2119407504796982,-0.1671562343835831,-0.01388598792254925,1757619.803193917,107.1626892089844,120.967041015625,-483.9758605957031,0
2023-02-13T13:25:54.328Z,45,1757619.849031125,-0.0032958984375,-0.1656646728515625,-0.8659515380859375,1757619.830048917,-0.1196566224098206,-0.1682832837104797,-0.01516137551516294,1757619.822785917,107.3560333251953,120.8581237792969,-484.400390625,0
2023-02-13T13:25:54.353Z,46,1757619.869051125,-0.0086669921875,-0.1782684326171875,-0.8371429443359375,1757619.850031125,0.02563825249671936,-0.2811749577522278,-0.06021726876497269,1757619.842371125,107.1949157714844,120.8823547363281,-484.9321899414062,0
2023-02-13T13:25:54.368Z,47,1757619.889070125,0.0754241943359375,-0.1933746337890625,-0.8555145263671875,1757619.870051125,0.08538493514060974,-0.4101915061473846,-0.07537411898374557,1757619.861963125,107.0844116210938,120.9236755371094,-485.0013732910156,0
2023-02-13T13:25:54.398Z,48,1757619.909090125,-0.0932769775390625,-0.15789794921875,-0.8081207275390625,1757619.890070125,-0.1851970255374908,-0.1903401166200638,-0.05164455249905586,1757619.881556125,106.6671905517578,120.6397857666016,-484.6953735351562,0
2023-02-13T13:25:54.410Z,49,1757619.929079125,-0.010284423828125,-0.1741943359375,-0.8178863525390625,1757619.910090125,-0.1751273423433304,-0.484354704618454,-0.009871272370219231,1757619.901148125,106.5572662353516,121.0929107666016,-484.208740234375,0
2023-02-13T13:25:54.439Z,50,1757619.949098125,-0.0309600830078125,-0.15185546875,-0.77703857421875,1757619.930079125,-0.1010368689894676,-0.4964582324028015,-0.02171381749212742,1757619.920740125,106.1356964111328,120.9462585449219,-483.910400390625,0
2023-02-13T13:25:54.448Z,51,1757619.969118125,-0.070068359375,-0.159210205078125,-0.7726593017578125,1757619.950098125,-0.008219047449529171,-0.4031541049480438,-0.1066963523626328,1757619.959925125,105.5168914794922,120.8597717285156,-483.5347290039062,0
2023-02-13T13:25:54.475Z,52,1757619.989137125,-0.0709228515625,-0.1688690185546875,-0.777587890625,1757619.970118125,-0.0454830639064312,-0.4471697807312012,-0.1224209889769554,1757619.979487125,105.1054992675781,120.7893829345703,-483.2070922851562,0
2023-02-13T13:25:54.489Z,53,1757620.009126125,-0.071441650390625,-0.1490936279296875,-0.79144287109375,1757619.990137125,-0.3089935183525085,-0.4875867068767548,0.01007500477135181,1757619.999079125,104.6381225585938,121.2040557861328,-483.5114440917969,0
2023-02-13T13:25:54.515Z,54,1757620.029146125,-0.1107025146484375,-0.1182861328125,-0.8055572509765625,1757620.010126125,-0.6999149322509766,-0.5928481221199036,0.04995131492614746,1757620.018671125,104.2688598632812,121.5410003662109,-483.3021850585938,0
2023-02-13T13:25:54.528Z,55,1757620.049165125,-0.134246826171875,-0.0904541015625,-0.816131591796875,1757620.030146125,-0.8925136923789978,-0.7324870228767395,0.01528547890484333,1757620.038233125,103.7229156494141,122.026611328125,-483.1600952148438,0
2023-02-13T13:25:54.548Z,56,1757620.069154125,-0.1672821044921875,-0.0660552978515625,-0.829345703125,1757620.050165125,-0.8689060807228088,-0.8027281165122986,0.02182726748287678,1757620.057825125,103.2857208251953,122.4807281494141,-482.6839904785156,0
2023-02-13T13:25:54.568Z,57,1757620.089174125,-0.152008056640625,-0.0543212890625,-0.865631103515625,1757620.070154125,-0.8036357760429382,-0.8137711882591248,0.0433482713997364,1757620.077418125,102.73876953125,123.0275268554688,-482.4401550292969,0
2023-02-13T13:25:54.588Z,58,1757620.109193125,-0.211151123046875,-0.0066680908203125,-0.8781280517578125,1757620.090174125,-0.8973143100738525,-0.9642302393913269,-0.02052924409508705,1757620.097010125,102.1675109863281,123.6200714111328,-481.1746520996094,0
2023-02-13T13:25:54.608Z,59,1757620.129213125,-0.232330322265625,0.0068817138671875,-0.874725341796875,1757620.110193125,-0.877849817276001,-1.264220118522644,-0.03117096796631813,1757620.116572125,101.5121002197266,124.0958099365234,-480.9791564941406,0
2023-02-13T13:25:54.628Z,60,1757620.149202125,-0.2982940673828125,0.006439208984375,-0.875457763671875,1757620.130213125,-0.641589343547821,-1.430439949035645,-0.0007608651067130268,1757620.136164125,100.4178009033203,124.5147705078125,-480.705322265625,0
2023-02-13T13:25:54.648Z,61,1757620.169221125,-0.347686767578125,0.005615234375,-0.925689697265625,1757620.150202125,-0.4850684106349945,-1.514806270599365,-0.004817658569663763,1757620.155726125,99.63565063476562,124.6732330322266,-479.1044921875,0
2023-02-13T13:25:54.668Z,62,1757620.189241125,-0.3646240234375,0.047943115234375,-0.9478607177734375,1757620.170221125,-0.8024919033050537,-1.394438028335571,-0.07355597615242004,1757620.175318125,98.85675048828125,124.9219970703125,-478.4484252929688,0
2023-02-13T13:25:54.688Z,63,1757620.209261125,-0.3480987548828125,0.0659942626953125,-0.8992919921875,1757620.190241125,-1.152787923812866,-1.168758630752563,-0.07926978915929794,1757620.194910125,98.016357421875,125.6371154785156,-478.3715209960938,0
2023-02-13T13:25:54.708Z,64,1757620.229250125,-0.3458404541015625,0.10284423828125,-0.84698486328125,1757620.210261125,-1.009125232696533,-1.146038413047791,0.04689773544669151,1757620.214472125,97.46356201171875,126.2201843261719,-477.6453552246094,0
2023-02-13T13:25:54.728Z,65,1757620.249269125,-0.44305419921875,0.0896453857421875,-0.8759765625,1757620.230250125,-0.6324583888053894,-1.379219651222229,0.03388100117444992,1757620.234064125,96.75465393066406,126.4786071777344,-476.7347412109375,0
2023-02-13T13:25:54.748Z,66,1757620.269289125,-0.4613189697265625,0.108673095703125,-0.93505859375,1757620.250269125,-0.7068402171134949,-1.734999060630798,-0.09860966354608536,1757620.253657125,95.84027099609375,126.6555633544922,-475.3638305664062,0
2023-02-13T13:25:54.768Z,67,1757620.289278125,-0.5037384033203125,0.143890380859375,-0.9220733642578125,1757620.270289125,-1.105009198188782,-1.76933765411377,-0.1705866456031799,1757620.273249125,94.66604614257812,126.9089508056641,-474.0429077148438,0
2023-02-13T13:25:54.790Z,68,1757620.309297125,-0.5093841552734375,0.1709747314453125,-0.866668701171875,1757620.310297125,-0.856332004070282,-1.557350277900696,0.1165021136403084,1757620.292811125,93.93159484863281,127.7238311767578,-473.2491149902344,0
2023-02-13T13:25:54.808Z,69,1757620.329317125,-0.5512542724609375,0.16998291015625,-0.8301239013671875,1757620.310297125,-0.856332004070282,-1.557350277900696,0.1165021136403084,1757620.312403125,93.40322875976562,128.4287872314453,-472.0144653320312,0
2023-02-13T13:25:54.831Z,70,1757620.349336125,-0.6315155029296875,0.16375732421875,-0.9001312255859375,1757620.330317125,-0.5679404139518738,-1.760299921035767,-0.03010836802423,1757620.331995125,92.64617919921875,128.5312652587891,-471.1044311523438,0
2023-02-13T13:25:54.848Z,71,1757620.369325125,-0.666717529296875,0.18267822265625,-0.9327545166015625,1757620.350336125,-0.9091494083404541,-1.882848262786865,-0.2263681590557098,1757620.351587125,91.61116027832031,128.5133361816406,-469.4981689453125,0
2023-02-13T13:25:54.872Z,72,1757620.389345125,-0.6685943603515625,0.2117462158203125,-0.8910980224609375,1757620.370325125,-1.256088972091675,-1.658043384552002,-0.2581082582473755,1757620.371149125,90.66989135742188,128.7994079589844,-468.1478271484375,0
2023-02-13T13:25:54.888Z,73,1757620.409364125,-0.6573638916015625,0.2317047119140625,-0.8311614990234375,1757620.390345125,-1.130369186401367,-1.443289756774902,-0.1355303972959518,1757620.390741125,90.36175537109375,129.2923431396484,-466.9306030273438,0
2023-02-13T13:25:54.914Z,74,1757620.429384125,-0.664703369140625,0.2344818115234375,-0.7687835693359375,1757620.410364125,-0.8183049559593201,-1.461998701095581,0.01161031704396009,1757620.410334125,89.94978332519531,129.5107879638672,-465.8031921386719,0
2023-02-13T13:25:54.928Z,75,1757620.449373125,-0.678680419921875,0.2198028564453125,-0.7325439453125,1757620.430384125,-0.5780588388442993,-1.625617980957031,-0.04202068597078323,1757620.429926125,89.52587890625,129.7519683837891,-465.1858825683594,0
2023-02-13T13:25:54.957Z,76,1757620.469392125,-0.715301513671875,0.2123565673828125,-0.728302001953125,1757620.450373125,-0.5792127847671509,-1.865552544593811,-0.08437427133321762,1757620.449488125,88.82093811035156,129.9373779296875,-463.7066650390625,0
2023-02-13T13:25:54.968Z,77,1757620.489412125,-0.789581298828125,0.23126220703125,-0.707763671875,1757620.470392125,-0.8399562239646912,-1.962140679359436,-0.07310004532337189,1757620.469080125,88.47134399414062,129.9444885253906,-462.3489990234375,0
2023-02-13T13:25:54.997Z,78,1757620.509401125,-0.77960205078125,0.2613067626953125,-0.6765594482421875,1757620.490412125,-1.078774690628052,-1.811168670654297,0.1211621090769768,1757620.488672125,88.08587646484375,130.0598754882812,-460.7341918945312,0
2023-02-13T13:25:55.011Z,79,1757620.529420125,-0.7707977294921875,0.3050537109375,-0.6383209228515625,1757620.510401125,-1.219671845436096,-1.623386263847351,0.2887311279773712,1757620.508265125,88.0072021484375,130.4546356201172,-459.1244812011719,0
2023-02-13T13:25:55.038Z,80,1757620.549440125,-0.784698486328125,0.3323974609375,-0.578399658203125,1757620.530420125,-1.274344682693481,-1.748888254165649,0.4297803938388824,1757620.527857125,87.81797790527344,131.0540008544922,-458.0205078125,0
2023-02-13T13:25:55.048Z,81,1757620.569460125,-0.822967529296875,0.350311279296875,-0.5201873779296875,1757620.550440125,-1.114371538162231,-2.207705974578857,0.4710237085819244,1757620.547449125,87.76548767089844,131.4000244140625,-456.0956420898438,0
2023-02-13T13:25:55.078Z,82,1757620.589449125,-0.8941192626953125,0.35711669921875,-0.491119384765625,1757620.570460125,-0.9887126684188843,-2.637006759643555,0.438371479511261,1757620.567042125,87.72161865234375,131.7523040771484,-454.3351440429688,0
2023-02-13T13:25:55.088Z,83,1757620.609468125,-0.93536376953125,0.3810882568359375,-0.4996337890625,1757620.590449125,-1.163761138916016,-2.685290336608887,0.4138616323471069,1757620.586634125,87.77052307128906,132.3886260986328,-452.2734375,0
2023-02-13T13:25:55.114Z,84,1757620.629488125,-0.941680908203125,0.45233154296875,-0.450592041015625,1757620.610468125,-1.289494633674622,-2.587692499160767,0.5379630923271179,1757620.606226125,88.04580688476562,132.6620025634766,-449.9696350097656,0
2023-02-13T13:25:55.129Z,85,1757620.649507125,-0.9267578125,0.50225830078125,-0.457550048828125,1757620.630488125,-1.862349390983582,-2.233527898788452,0.6124995946884155,1757620.625818125,88.2071533203125,133.1621398925781,-448.1141967773438,0
2023-02-13T13:25:55.153Z,86,1757620.669496125,-0.9607391357421875,0.5441436767578125,-0.3647613525390625,1757620.650507125,-1.978634119033813,-1.973837494850159,0.5731732249259949,1757620.645380125,88.81906127929688,133.3588562011719,-445.7233276367188,0
2023-02-13T13:25:55.169Z,87,1757620.689516125,-0.9460296630859375,0.5260772705078125,-0.3465728759765625,1757620.670496125,-1.712765216827393,-1.699648022651672,0.3696803152561188,1757620.664972125,89.15415954589844,133.6537780761719,-444.1287536621094,0
2023-02-13T13:25:55.193Z,88,1757620.709535125,-0.951416015625,0.4947967529296875,-0.34393310546875,1757620.690516125,-1.412487387657166,-1.658905625343323,0.2479975521564484,1757620.684565125,89.87455749511719,133.6289672851562,-442.5579223632812,0
2023-02-13T13:25:55.210Z,89,1757620.729524125,-0.9780731201171875,0.501556396484375,-0.3701934814453125,1757620.710535125,-1.361026883125305,-1.718661904335022,0.23438960313797,1757620.704157125,90.21180725097656,133.4184722900391,-440.9435119628906,0
2023-02-13T13:25:55.234Z,90,1757620.749544125,-0.9705047607421875,0.508056640625,-0.385223388671875,1757620.730524125,-1.53828501701355,-1.701913356781006,0.1164850667119026,1757620.723749125,90.59527587890625,133.4232940673828,-439.5119018554688,0
2023-02-13T13:25:55.248Z,91,1757620.769563125,-0.9621734619140625,0.54034423828125,-0.389739990234375,1757620.750544125,-1.555706262588501,-1.490843653678894,0.1042768731713295,1757620.743342125,91.09175109863281,133.0389099121094,-437.9141235351562,0
2023-02-13T13:25:55.273Z,92,1757620.789583125,-0.968994140625,0.5467071533203125,-0.4054412841796875,1757620.770563125,-1.295495986938477,-1.228570580482483,0.1275092214345932,1757620.762934125,91.56388854980469,132.7495269775391,-436.5738525390625,0
2023-02-13T13:25:55.289Z,93,1757620.809572125,-0.95111083984375,0.52142333984375,-0.404144287109375,1757620.790583125,-0.8793579339981079,-0.9235991835594177,0.07662633806467056,1757620.782526125,92.1920166015625,132.7537384033203,-435.5133666992188,0
2023-02-13T13:25:55.313Z,94,1757620.829591125,-0.9432373046875,0.51568603515625,-0.3999176025390625,1757620.810572125,-0.4425569176673889,-0.5733173489570618,0.04096581041812897,1757620.802118125,92.37921142578125,132.4395294189453,-434.7134704589844,0
2023-02-13T13:25:55.329Z,95,1757620.849576667,-0.90997314453125,0.50006103515625,-0.403900146484375,1757620.830591125,-0.1719579100608826,-0.2627679705619812,0.04740666225552559,1757620.821680125,92.48454284667969,132.2935485839844,-434.2147827148438,0
2023-02-13T13:25:55.353Z,96,1757620.869595667,-0.92291259765625,0.5111083984375,-0.4074249267578125,1757620.850576667,0.04053517431020737,-0.178871750831604,0.02528218738734722,1757620.841237667,92.5841064453125,132.5568542480469,-434.2363891601562,0
2023-02-13T13:25:55.368Z,97,1757620.889584667,-0.937591552734375,0.50506591796875,-0.4129638671875,1757620.870595667,0.3147741854190826,-0.1586524993181229,0.04031519964337349,1757620.880422667,92.69123840332031,132.8479156494141,-434.095703125,0
2023-02-13T13:25:55.393Z,98,1757620.909604667,-0.962005615234375,0.4966888427734375,-0.4091796875,1757620.890584667,0.5312580466270447,0.04342124238610268,0.02315751649439335,1757620.899984667,92.78572082519531,132.8953857421875,-434.5000915527344,0
2023-02-13T13:25:55.409Z,99,1757620.929623667,-0.954833984375,0.4888763427734375,-0.4117279052734375,1757620.930623667,0.6434983015060425,0.7933087944984436,-0.04143772274255753,1757620.919576667,92.38446044921875,133.1057891845703,-434.9484252929688,0
2023-02-13T13:25:55.439Z,100,1757620.949612667,-0.9649658203125,0.4759979248046875,-0.4300689697265625,1757620.930623667,0.6434983015060425,0.7933087944984436,-0.04143772274255753,1757620.939168667,92.22625732421875,133.5485687255859,-435.4035949707031,0
2023-02-13T13:25:55.449Z,101,1757620.969632667,-0.9721221923828125,0.4800872802734375,-0.44921875,1757620.950612667,0.6016440391540527,0.9168725609779358,-0.0765530988574028,1757620.958761667,91.78205871582031,133.5166473388672,-436.4200134277344,0
2023-02-13T13:25:55.469Z,102,1757620.989652667,-0.9763336181640625,0.4974517822265625,-0.4656982421875,1757620.970632667,0.5788825154304504,1.050575017929077,-0.1658355742692947,1757620.978353667,91.413330078125,133.6472320556641,-437.1954956054688,0
2023-02-13T13:25:55.489Z,103,1757621.009671667,-1.012008666992188,0.517181396484375,-0.4951324462890625,1757621.010671667,1.080615401268005,1.577197432518005,-0.2035720348358154,1757620.997945667,91.15277099609375,133.7308349609375,-438.0399169921875,0
2023-02-13T13:25:55.508Z,104,1757621.029660667,-1.02056884765625,0.494842529296875,-0.5167388916015625,1757621.010671667,1.080615401268005,1.577197432518005,-0.2035720348358154,1757621.017538667,90.65623474121094,133.7572631835938,-439.6331176757812,0
2023-02-13T13:25:55.529Z,105,1757621.049680667,-1.00311279296875,0.4726715087890625,-0.522003173828125,1757621.030660667,1.313694000244141,1.895015716552734,-0.1884364932775497,1757621.037130667,89.8272705078125,134.0982208251953,-441.0168762207031,0
2023-02-13T13:25:55.548Z,106,1757621.069699667,-1.064559936523438,0.4714202880859375,-0.55364990234375,1757621.050680667,1.400903105735779,2.007427453994751,-0.2475466877222061,1757621.056722667,89.37669372558594,133.8609619140625,-442.9570922851562,0
2023-02-13T13:25:55.568Z,107,1757621.089688667,-1.130935668945312,0.4800567626953125,-0.610595703125,1757621.070699667,1.37441349029541,1.991737723350525,-0.3531309068202972,1757621.076284667,88.69749450683594,134.1243438720703,-444.7465209960938,0
2023-02-13T13:25:55.588Z,108,1757621.109708667,-1.195144653320312,0.48956298828125,-0.6451263427734375,1757621.090688667,1.402959108352661,2.11893630027771,-0.5462177991867065,1757621.095876667,88.31916809082031,133.4243316650391,-446.5361328125,0
2023-02-13T13:25:55.608Z,109,1757621.129727667,-1.205551147460938,0.5075836181640625,-0.6898040771484375,1757621.110708667,1.617370247840881,2.535581827163696,-0.6496672034263611,1757621.115468667,87.81889343261719,132.9590606689453,-448.6611938476562,0
2023-02-13T13:25:55.628Z,110,1757621.149747667,-1.14654541015625,0.5177459716796875,-0.720703125,1757621.130727667,1.833932638168335,3.078075885772705,-0.5688512325286865,1757621.135061667,87.57894897460938,132.4925689697266,-451.0859375,0
2023-02-13T13:25:55.648Z,111,1757621.169736667,-1.09814453125,0.4891815185546875,-0.7222747802734375,1757621.150747667,2.015955209732056,3.363362550735474,-0.5493419766426086,1757621.154653667,87.32618713378906,131.9462585449219,-454.138916015625,0
2023-02-13T13:25:55.669Z,112,1757621.189755667,-1.073745727539062,0.4433746337890625,-0.7448577880859375,1757621.170736667,2.179297685623169,3.126294612884521,-0.6645936965942383,1757621.174215667,87.55000305175781,131.4593811035156,-457.093017578125,0
2023-02-13T13:25:55.689Z,113,1757621.209775667,-1.071090698242188,0.3831024169921875,-0.76861572265625,1757621.190755667,2.280773639678955,2.644962787628174,-0.7543038725852966,1757621.193807667,87.43991088867188,130.4520111083984,-459.7329711914062,0
2023-02-13T13:25:55.709Z,114,1757621.229794667,-1.053665161132812,0.3569183349609375,-0.8336944580078125,1757621.210775667,2.282822608947754,2.464336156845093,-0.7485149502754211,1757621.213399667,87.74859619140625,129.2075958251953,-461.8394165039062,0
2023-02-13T13:25:55.729Z,115,1757621.249783667,-0.9980926513671875,0.3346405029296875,-0.8457794189453125,1757621.230794667,2.06029200553894,2.789378881454468,-0.6002325415611267,1757621.232992667,88.28041076660156,128.0578155517578,-464.0743408203125,0
2023-02-13T13:25:55.749Z,116,1757621.269803667,-0.8864593505859375,0.284576416015625,-0.831085205078125,1757621.250783667,1.916435241699219,3.29295825958252,-0.4710700511932373,1757621.252553667,89.296142578125,127.4315185546875,-466.8173217773438,0
2023-02-13T13:25:55.769Z,117,1757621.289822667,-0.78887939453125,0.233917236328125,-0.80438232421875,1757621.270803667,2.054263591766357,3.287221431732178,-0.3935872316360474,1757621.272146667,90.08078002929688,126.246337890625,-468.9221801757812,0
2023-02-13T13:25:55.793Z,118,1757621.309811667,-0.733245849609375,0.1564483642578125,-0.792816162109375,1757621.290822667,2.341532945632935,2.714723348617554,-0.5579253435134888,1757621.291738667,91.17933654785156,124.9815216064453,-471.2798461914062,0
2023-02-13T13:25:55.811Z,119,1757621.329831667,-0.7131195068359375,0.101348876953125,-0.8375396728515625,1757621.310811667,2.40227198600769,2.231451034545898,-0.5985299944877625,1757621.311330667,92.00895690917969,123.6896362304688,-473.0026550292969,0
2023-02-13T13:25:55.838Z,120,1757621.349851667,-0.727294921875,0.0724639892578125,-0.8748626708984375,1757621.330831667,2.108770370483398,2.21524715423584,-0.6437233090400696,1757621.330953667,92.99417114257812,122.2699127197266,-474.5784301757812,0
2023-02-13T13:25:55.849Z,121,1757621.369870667,-0.6401519775390625,0.0778045654296875,-0.92041015625,1757621.350851667,1.755762696266174,2.560255289077759,-0.638823926448822,1757621.350545667,94.07508850097656,120.6841735839844,-476.1354370117188,0
2023-02-13T13:25:55.877Z,122,1757621.389859667,-0.5540313720703125,0.074310302734375,-0.866058349609375,1757621.370870667,1.454317927360535,3.052184104919434,-0.5657182335853577,1757621.370138667,95.66033935546875,119.7165374755859,-477.7376098632812,0
2023-02-13T13:25:55.889Z,123,1757621.409879667,-0.4638671875,0.0626220703125,-0.8518218994140625,1757621.390859667,1.725942015647888,2.988153696060181,-0.6075429320335388,1757621.389730667,97.40646362304688,118.6389312744141,-479.8848266601562,0
2023-02-13T13:25:55.914Z,124,1757621.429898667,-0.4093475341796875,0.0023345947265625,-0.88043212890625,1757621.410879667,2.055668115615845,2.461002111434937,-0.8398014903068542,1757621.409322667,98.98500061035156,117.0709838867188,-481.2617797851562,0
2023-02-13T13:25:55.929Z,125,1757621.449918667,-0.3959503173828125,-0.0182952880859375,-0.9694061279296875,1757621.430898667,1.842919230461121,2.062201499938965,-0.6983729600906372,1757621.428914667,100.6299133300781,115.8343048095703,-481.7855224609375,0
2023-02-13T13:25:55.954Z,126,1757621.469907667,-0.380035400390625,-0.0006561279296875,-0.982421875,1757621.450918667,1.258888721466064,1.988865733146667,-0.2529416978359222,1757621.448507667,101.8189544677734,114.7336883544922,-482.5010375976562,0
2023-02-13T13:25:55.969Z,127,1757621.489926667,-0.3414154052734375,-0.04156494140625,-0.893585205078125,1757621.470907667,1.293842434883118,2.402809381484985,-0.06275525689125061,1757621.468099667,103.2877960205078,113.9604034423828,-483.8014831542969,0
2023-02-13T13:25:55.992Z,128,1757621.509946667,-0.216827392578125,-0.0767974853515625,-0.81787109375,1757621.490926667,1.781309843063354,2.696868896484375,-0.3246707618236542,1757621.487691667,105.2368469238281,112.8118133544922,-484.4503784179688,0
2023-02-13T13:25:56.009Z,129,1757621.529935667,-0.1159515380859375,-0.1507568359375,-0.6878814697265625,1757621.510946667,2.090049505233765,2.729079723358154,-0.4727230668067932,1757621.507284667,107.2258758544922,111.4699401855469,-485.5256958007812,0
2023-02-13T13:25:56.038Z,130,1757621.549954667,-0.019805908203125,-0.21392822265625,-0.6453704833984375,1757621.530935667,2.199665546417236,2.345615863800049,-0.4166611433029175,1757621.526876667,109.05908203125,110.0785980224609,-485.65380859375,0
2023-02-13T13:25:56.049Z,131,1757621.569974667,0.0107879638671875,-0.289093017578125,-0.595001220703125,1757621.550954667,2.096008062362671,1.825930833816528,-0.4131678640842438,1757621.546438667,110.6498107910156,108.6973266601562,-486.763427734375,0
2023-02-13T13:25:56.074Z,132,1757621.589993667,0.0142059326171875,-0.3202362060546875,-0.5608673095703125,1757621.570974667,1.856178522109985,1.635635733604431,-0.3030512034893036,1757621.566030667,112.0552215576172,106.7816619873047,-486.537353515625,0
2023-02-13T13:25:56.089Z,133,1757621.609982667,0.037200927734375,-0.3433990478515625,-0.557373046875,1757621.590993667,1.678787231445312,1.756584048271179,-0.255497545003891,1757621.585622667,112.9966430664062,105.7634124755859,-487.0122375488281,0
2023-02-13T13:25:56.114Z,134,1757621.630002667,0.063629150390625,-0.3761749267578125,-0.6013946533203125,1757621.610982667,1.530136823654175,1.855239272117615,-0.2623738348484039,1757621.605215667,114.5907745361328,104.4687347412109,-486.7486572265625,0
2023-02-13T13:25:56.129Z,135,1757621.650021667,0.1386566162109375,-0.4073486328125,-0.577728271484375,1757621.631002667,1.240030407905579,1.732203006744385,-0.2405982315540314,1757621.624807667,116.2952728271484,103.4255218505859,-487.2593383789062,0
2023-02-13T13:25:56.153Z,136,1757621.670041667,0.1580657958984375,-0.4190673828125,-0.5932769775390625,1757621.651021667,1.127922177314758,1.735717415809631,-0.2387577146291733,1757621.644399667,117.4951629638672,102.6510314941406,-487.0153198242188,0
2023-02-13T13:25:56.169Z,137,1757621.690030667,0.18316650390625,-0.4443511962890625,-0.6354522705078125,1757621.671041667,1.007229924201965,1.589182257652283,-0.2274992018938065,1757621.663991667,118.7307739257812,101.7635803222656,-486.7773132324219,0
2023-02-13T13:25:56.194Z,138,1757621.710050667,0.1779327392578125,-0.424652099609375,-0.70928955078125,1757621.691030667,0.8393926620483398,1.407824754714966,-0.1433009654283524,1757621.683584667,120.0130157470703,100.9958953857422,-487.3958129882812,0
2023-02-13T13:25:56.209Z,139,1757621.730069667,0.2096710205078125,-0.43023681640625,-0.66656494140625,1757621.711050667,0.7480998039245605,1.591660618782043,0.01616032794117928,1757621.703176667,120.987548828125,100.5737915039062,-486.9288940429688,0
2023-02-13T13:25:56.233Z,140,1757621.750058667,0.2412872314453125,-0.4438018798828125,-0.65704345703125,1757621.731069667,1.036208510398865,1.865506291389465,-0.0222693532705307,1757621.722768667,122.6853332519531,100.033935546875,-486.3511657714844,0
2023-02-13T13:25:56.249Z,141,1757621.770078667,0.27886962890625,-0.4691619873046875,-0.647979736328125,1757621.751058667,1.094403624534607,1.883149385452271,-0.1078676134347916,1757621.742361667,123.7647399902344,99.16287231445312,-486.8643188476562,0
2023-02-13T13:25:56.270Z,142,1757621.790097667,0.324798583984375,-0.4762115478515625,-0.64703369140625,1757621.771078667,0.975801408290863,1.751652956008911,-0.1454719752073288,1757621.761953667,125.0690612792969,98.45668029785156,-486.2874145507812,0
2023-02-13T13:25:56.289Z,143,1757621.810117667,0.337799072265625,-0.4654693603515625,-0.5799560546875,1757621.791097667,0.9277366399765015,1.69744086265564,-0.2138102948665619,1757621.801137667,127.8046722412109,97.11613464355469,-486.1156005859375,0
2023-02-13T13:25:56.314Z,144,1757621.830106667,0.37432861328125,-0.4761199951171875,-0.4764862060546875,1757621.811117667,1.132088184356689,1.967845678329468,-0.124654047191143,1757621.820730667,129.1628265380859,96.520751953125,-485.358642578125,0
2023-02-13T13:25:56.329Z,145,1757621.85011475,0.4213409423828125,-0.517120361328125,-0.2999114990234375,1757621.831106667,1.394032716751099,2.42873740196228,0.007250189781188965,1757621.84028075,130.6070404052734,95.1947021484375,-484.9868774414062,0
2023-02-13T13:25:56.353Z,146,1757621.87013475,0.4711456298828125,-0.5661773681640625,-0.1439971923828125,1757621.85111475,1.579830527305603,2.488789796829224,-0.07147417962551117,1757621.85987375,132.3441467285156,93.95166015625,-483.9028930664062,0
2023-02-13T13:25:56.369Z,147,1757621.89015375,0.54522705078125,-0.649017333984375,0.02996826171875,1757621.87113475,1.71509325504303,2.263267517089844,-0.2680317163467407,1757621.87946575,133.6258697509766,92.8990478515625,-483.1925354003906,0
2023-02-13T13:25:56.393Z,148,1757621.91014275,0.595977783203125,-0.7429656982421875,0.1827850341796875,1757621.89115375,1.985861659049988,1.747131705284119,-0.4747545421123505,1757621.89905775,134.8679656982422,91.46870422363281,-482.1925048828125,0
2023-02-13T13:25:56.411Z,149,1757621.93016275,0.6093597412109375,-0.806915283203125,0.28448486328125,1757621.91114275,2.120979785919189,1.226480007171631,-0.4558396935462952,1757621.91865075,135.6355285644531,89.94631958007812,-481.6084594726562,0
2023-02-13T13:25:56.440Z,150,1757621.95018175,0.6134185791015625,-0.845977783203125,0.3356475830078125,1757621.93116275,1.527870416641235,1.150591254234314,-0.2334369868040085,1757621.93824275,136.2786560058594,88.606689453125,-481.9945068359375,0
2023-02-13T13:25:56.449Z,151,1757621.97017075,0.608489990234375,-0.8718719482421875,0.360931396484375,1757621.95118175,0.5491491556167603,1.075360417366028,-0.04329926893115044,1757621.95783475,136.4913482666016,88.14544677734375,-480.96337890625,0
2023-02-13T13:25:56.478Z,152,1757621.99019075,0.608367919921875,-0.877593994140625,0.331756591796875,1757621.97117075,-0.2117705792188644,0.8260204195976257,0.05479880049824715,1757621.97745775,136.757080078125,88.07255554199219,-481.2272033691406,0
2023-02-13T13:25:56.489Z,153,1757622.01020975,0.6139373779296875,-0.8549957275390625,0.250335693359375,1757621.99119075,-0.6768117547035217,0.160400852560997,0.01284762192517519,1757621.99701975,136.8944854736328,88.47325134277344,-481.7481079101562,0
2023-02-13T13:25:56.514Z,154,1757622.03022975,0.59222412109375,-0.7888641357421875,0.1463165283203125,1757622.01120975,-0.8358922004699707,-0.4511677026748657,-0.1088079735636711,1757622.01664275,136.9743347167969,89.31265258789062,-482.3376770019531,0
2023-02-13T13:25:56.529Z,155,1757622.05021875,0.5840911865234375,-0.741851806640625,0.034271240234375,1757622.03122975,-0.7966662645339966,-0.7518377900123596,-0.1691006124019623,1757622.03623475,136.755615234375,89.75358581542969,-481.8984985351562,0
2023-02-13T13:25:56.553Z,156,1757622.07023775,0.5812530517578125,-0.721649169921875,-0.08636474609375,1757622.05121875,-0.7602558135986328,-1.110862851142883,-0.144147053360939,1757622.05582675,136.4116516113281,90.37179565429688,-482.634521484375,0
2023-02-13T13:25:56.569Z,157,1757622.09025775,0.5701751708984375,-0.7126312255859375,-0.1928863525390625,1757622.07123775,-0.8306084871292114,-1.461044192314148,-0.07588810473680496,1757622.07541875,135.5858154296875,91.15188598632812,-482.3880615234375,0
2023-02-13T13:25:56.593Z,158,1757622.11027775,0.51654052734375,-0.6949615478515625,-0.2293853759765625,1757622.09125775,-0.9856457710266113,-1.556018114089966,0.003443733556196094,1757622.09501175,134.8257904052734,91.91519165039062,-482.6064453125,0
2023-02-13T13:25:56.609Z,159,1757622.13026675,0.52178955078125,-0.663543701171875,-0.2207794189453125,1757622.11127775,-1.002450585365295,-1.349229574203491,-0.1025157198309898,1757622.11460375,134.3928375244141,92.73948669433594,-483.5401000976562,0
2023-02-13T13:25:56.638Z,160,1757622.15028575,0.553253173828125,-0.6287078857421875,-0.166473388671875,1757622.15128575,-0.4012978971004486,-1.590798020362854,-0.6273086667060852,1757622.13419575,133.7390289306641,93.6378173828125,-484.4041137695312,0
2023-02-13T13:25:56.649Z,161,1757622.17030575,0.5761566162109375,-0.6148223876953125,-0.19769287109375,1757622.15128575,-0.4012978971004486,-1.590798020362854,-0.6273086667060852,1757622.15378875,133.1480407714844,94.10324096679688,-484.2882080078125,0
2023-02-13T13:25:56.674Z,162,1757622.19029475,0.5389404296875,-0.636627197265625,-0.3140411376953125,1757622.17130575,-0.3724779486656189,-2.069050550460815,-0.4218399226665497,1757622.17338075,132.1636657714844,94.55140686035156,-484.6264038085938,0
2023-02-13T13:25:56.689Z,163,1757622.21031375,0.4625091552734375,-0.61981201171875,-0.377227783203125,1757622.19129475,-0.9226617217063904,-2.197167873382568,-0.03996632620692253,1757622.19297275,130.8017425537109,95.18792724609375,-485.2844848632812,0
2023-02-13T13:25:56.714Z,164,1757622.23033375,0.42303466796875,-0.547332763671875,-0.35028076171875,1757622.21131375,-1.428817629814148,-1.692830562591553,0.1217509359121323,1757622.21256475,129.4170837402344,96.06434631347656,-485.3428039550781,0
2023-02-13T13:25:56.729Z,165,1757622.25035275,0.458343505859375,-0.4795379638671875,-0.3474578857421875,1757622.23133375,-1.394492387771606,-1.215167164802551,-0.04889563843607903,1757622.23215775,128.7138977050781,97.074462890625,-486.2764892578125,0
2023-02-13T13:25:56.753Z,166,1757622.27034175,0.4627685546875,-0.4579010009765625,-0.370391845703125,1757622.25135275,-0.987084686756134,-1.426473736763,-0.1076939702033997,1757622.25174975,127.6116943359375,97.96701049804688,-486.5494384765625,0
2023-02-13T13:25:56.769Z,167,1757622.29036175,0.387115478515625,-0.4822540283203125,-0.4429168701171875,1757622.27134175,-0.6630791425704956,-2.283478021621704,-0.006471747532486916,1757622.27134175,126.3090362548828,98.67289733886719,-486.923095703125,0
2023-02-13T13:25:56.797Z,168,1757622.31038075,0.256011962890625,-0.49273681640625,-0.512359619140625,1757622.29136175,-0.7713912725448608,-2.836154699325562,0.05301474779844284,1757622.29096475,124.5414123535156,98.76315307617188,-486.3203125,0
2023-02-13T13:25:56.810Z,169,1757622.33040075,0.2091827392578125,-0.4566497802734375,-0.565643310546875,1757622.31138075,-1.084191203117371,-2.518746376037598,0.1336688548326492,1757622.31055675,122.5973205566406,99.47189331054688,-487.2956848144531,0
2023-02-13T13:25:56.834Z,170,1757622.35038975,0.2113494873046875,-0.4118499755859375,-0.5927734375,1757622.33140075,-1.326749801635742,-1.917231202125549,0.2465304136276245,1757622.33014975,121.0255126953125,100.5105590820312,-487.4858093261719,0
2023-02-13T13:25:56.849Z,171,1757622.37040875,0.1909332275390625,-0.3794403076171875,-0.6111907958984375,1757622.35138975,-1.26305878162384,-1.744346022605896,0.4394753575325012,1757622.34974175,119.3614044189453,101.3711700439453,-487.4790649414062,0
2023-02-13T13:25:56.874Z,172,1757622.39042875,0.15771484375,-0.3967132568359375,-0.5984954833984375,1757622.37140875,-1.101142287254333,-2.176191568374634,0.2440238445997238,1757622.36933375,117.8321075439453,102.0427551269531,-486.9854125976562,0
2023-02-13T13:25:56.889Z,173,1757622.41041775,0.1047515869140625,-0.3923492431640625,-0.625946044921875,1757622.39142875,-0.8856704235076904,-2.7417311668396,-0.05253644287586212,1757622.38892575,116.0674591064453,102.6148071289062,-487.1820678710938,0
2023-02-13T13:25:56.914Z,174,1757622.43043675,0.030517578125,-0.3851470947265625,-0.6910247802734375,1757622.43143675,-1.105490446090698,-2.6177818775177,0.2730847895145416,1757622.40851875,113.8603668212891,103.2321624755859,-486.3952026367188,0
2023-02-13T13:25:56.929Z,175,1757622.45045675,-0.0711822509765625,-0.3698577880859375,-0.746307373046875,1757622.43143675,-1.105490446090698,-2.6177818775177,0.2730847895145416,1757622.42811075,111.9463043212891,104.1239929199219,-486.059814453125,0
2023-02-13T13:25:56.954Z,176,1757622.47047675,-0.132171630859375,-0.3689422607421875,-0.79742431640625,1757622.45145675,-1.366495609283447,-2.383095502853394,0.3287033140659332,1757622.44770275,110.2096405029297,104.8516387939453,-485.3677673339844,0
2023-02-13T13:25:56.969Z,177,1757622.49046575,-0.120025634765625,-0.35089111328125,-0.8111114501953125,1757622.47147675,-1.604331374168396,-2.081169605255127,0.113693542778492,1757622.46729575,108.5951080322266,105.8025207519531,-485.13818359375,0
2023-02-13T13:25:56.989Z,178,1757622.51048475,-0.0831756591796875,-0.3070068359375,-0.7644195556640625,1757622.49146575,-1.634329795837402,-2.001869201660156,-0.08107674121856689,1757622.48685675,106.8007354736328,106.8352966308594,-485.1295776367188,0
2023-02-13T13:25:57.009Z,179,1757622.53050475,-0.201416015625,-0.2828826904296875,-0.83087158203125,1757622.51148475,-1.376373887062073,-2.310096025466919,0.1446799486875534,1757622.50644975,105.5841674804688,107.7476654052734,-484.9736633300781,0
2023-02-13T13:25:57.034Z,180,1757622.55052375,-0.396270751953125,-0.2838897705078125,-1.0289306640625,1757622.53150475,-1.409241557121277,-2.783705234527588,0.299279659986496,1757622.52604175,103.7596893310547,108.8892211914062,-483.2350158691406,0
2023-02-13T13:25:57.049Z,181,1757622.57051275,-0.4163665771484375,-0.26776123046875,-1.084442138671875,1757622.55152375,-2.048506498336792,-2.757073640823364,0.2967307269573212,1757622.54563375,101.8163146972656,109.802978515625,-482.7391357421875,0
2023-02-13T13:25:57.074Z,182,1757622.59053275,-0.2617645263671875,-0.18548583984375,-1.031112670898438,1757622.57151275,-2.506012201309204,-1.997432589530945,0.509124219417572,1757622.56522675,100.0648651123047,111.1727142333984,-482.1681213378906,0
2023-02-13T13:25:57.089Z,183,1757622.61055175,-0.1984405517578125,-0.115081787109375,-0.8818206787109375,1757622.59153275,-2.112549066543579,-1.482879281044006,0.8666107058525085,1757622.58481875,98.829833984375,112.9467163085938,-480.9864196777344,0
2023-02-13T13:25:57.114Z,184,1757622.63054075,-0.4381103515625,-0.0771331787109375,-0.858978271484375,1757622.63154075,-0.6124362349510193,-2.95453667640686,-0.2204886972904205,1757622.60441075,97.88330078125,114.3777618408203,-480.4739379882812,0
2023-02-13T13:25:57.130Z,185,1757622.65056075,-0.5428619384765625,-0.1126556396484375,-1.006881713867188,1757622.63154075,-0.6124362349510193,-2.95453667640686,-0.2204886972904205,1757622.62400275,96.86241149902344,114.9514923095703,-478.8784790039062,0
2023-02-13T13:25:57.154Z,186,1757622.67057975,-0.5530548095703125,-0.1244049072265625,-1.020584106445312,1757622.65156075,-0.8095312118530273,-3.072496891021729,-0.1080164834856987,1757622.64359575,94.99295043945312,115.058837890625,-477.3151245117188,0
2023-02-13T13:25:57.170Z,187,1757622.69059975,-0.4881591796875,-0.104583740234375,-0.9158172607421875,1757622.67157975,-1.241347074508667,-2.162675857543945,0.5972817540168762,1757622.66318775,93.51251220703125,115.28955078125,-476.0426025390625,0
2023-02-13T13:25:57.193Z,188,1757622.71058875,-0.5734710693359375,-0.0384674072265625,-0.839080810546875,1757622.69159975,-1.526485323905945,-1.563654541969299,0.9983437061309814,1757622.68277975,92.43475341796875,116.3118438720703,-474.8563232421875,0
2023-02-13T13:25:57.210Z,189,1757622.73060775,-0.6136627197265625,-0.002960205078125,-0.8463134765625,1757622.71158875,-1.536917209625244,-1.699347138404846,0.6150466799736023,1757622.70237275,91.71003723144531,117.4975128173828,-473.8948669433594,0
2023-02-13T13:25:57.234Z,190,1757622.75062775,-0.660858154296875,0.0310516357421875,-0.87115478515625,1757622.73160775,-1.204239368438721,-2.287897348403931,0.04480874910950661,1757622.74155675,89.71282958984375,119.1118316650391,-470.993408203125,0
2023-02-13T13:25:57.249Z,191,1757622.77061675,-0.67437744140625,0.0265045166015625,-0.874908447265625,1757622.75162775,-0.68000727891922,-2.595422267913818,0.08403791487216949,1757622.76114875,88.60931396484375,119.1334991455078,-469.6339416503906,0
2023-02-13T13:25:57.275Z,192,1757622.79063575,-0.6982421875,0.034820556640625,-0.8175506591796875,1757622.77161675,-0.4887079000473022,-2.459622621536255,0.524523138999939,1757622.78074175,87.92758178710938,119.6737976074219,-467.8198852539062,0
2023-02-13T13:25:57.289Z,193,1757622.81065575,-0.7281494140625,0.05377197265625,-0.7662506103515625,1757622.79163575,-0.6312517523765564,-2.156147480010986,0.8782007694244385,1757622.80033375,87.20721435546875,120.7076263427734,-466.5262451171875,0
2023-02-13T13:25:57.315Z,194,1757622.83067475,-0.762969970703125,0.064300537109375,-0.6969146728515625,1757622.81165575,-0.9630656242370605,-1.859870672225952,0.9476882815361023,1757622.81992575,86.85372924804688,121.4574737548828,-465.1895141601562,0
2023-02-13T13:25:57.329Z,195,1757622.850664792,-0.77252197265625,0.09246826171875,-0.62152099609375,1757622.83167475,-1.165875196456909,-1.790374159812927,0.5530503988265991,1757622.839518792,86.43168640136719,122.2462615966797,-463.9334106445312,0
2023-02-13T13:25:57.355Z,196,1757622.870683792,-0.8050079345703125,0.119720458984375,-0.600250244140625,1757622.851664792,-0.9916964769363403,-2.094027519226074,0.3072281181812286,1757622.859079792,86.16819763183594,122.9239654541016,-462.3016357421875,0
2023-02-13T13:25:57.370Z,197,1757622.890703792,-0.81683349609375,0.1383056640625,-0.5880279541015625,1757622.871683792,-0.6456665992736816,-2.501032829284668,0.4650337398052216,1757622.878672792,85.27798461914062,123.3486785888672,-460.5025634765625,0
2023-02-13T13:25:57.398Z,198,1757622.910722792,-0.852142333984375,0.173431396484375,-0.5438385009765625,1757622.891703792,-0.4286613464355469,-2.578694581985474,0.9886857867240906,1757622.898264792,85.01968383789062,124.0208129882812,-458.5006103515625,0
2023-02-13T13:25:57.410Z,199,1757622.930711792,-0.9367218017578125,0.1802825927734375,-0.483612060546875,1757622.911722792,-0.7714916467666626,-2.306847095489502,1.196118831634521,1757622.917856792,85.09153747558594,124.9541931152344,-456.8055114746094,0
2023-02-13T13:25:57.435Z,200,1757622.950731792,-1.008621215820312,0.19293212890625,-0.441864013671875,1757622.931711792,-1.395351529121399,-1.976747274398804,0.956315279006958,1757622.937448792,85.24122619628906,125.9650726318359,-455.353759765625,0
2023-02-13T13:25:57.450Z,201,1757622.970750792,-1.035552978515625,0.2323150634765625,-0.4012603759765625,1757622.951731792,-1.629494786262512,-2.078500509262085,0.4462403357028961,1757622.957041792,85.3031005859375,126.4328308105469,-453.4722595214844,0
2023-02-13T13:25:57.474Z,202,1757622.990739792,-1.016525268554688,0.2965240478515625,-0.349151611328125,1757622.971750792,-1.329968571662903,-2.186782598495483,0.4199400246143341,1757622.976633792,85.21836853027344,127.0154113769531,-451.7720947265625,0
2023-02-13T13:25:57.490Z,203,1757623.010759792,-1.012527465820312,0.3777008056640625,-0.3086700439453125,1757622.991739792,-0.8857769370079041,-2.439766883850098,0.63748699426651,1757622.996225792,85.28985595703125,127.2969055175781,-449.9210205078125,0
2023-02-13T13:25:57.519Z,204,1757623.030778792,-1.054550170898438,0.423004150390625,-0.309478759765625,1757623.031778792,-1.424441814422607,-2.586455583572388,1.140824198722839,1757623.015818792,86.05963134765625,128.1705017089844,-447.6196594238281,0
2023-02-13T13:25:57.530Z,205,1757623.050798792,-1.13739013671875,0.4165496826171875,-0.3150482177734375,1757623.031778792,-1.424441814422607,-2.586455583572388,1.140824198722839,1757623.035379792,86.58734130859375,128.8474273681641,-445.419677734375,0
2023-02-13T13:25:57.554Z,206,1757623.070787792,-1.211135864257812,0.447601318359375,-0.3240509033203125,1757623.051798792,-2.225785970687866,-2.334743738174438,1.203561544418335,1757623.054972792,87.48394775390625,129.6313323974609,-443.535400390625,0
2023-02-13T13:25:57.570Z,207,1757623.090806792,-1.190093994140625,0.5259552001953125,-0.2850189208984375,1757623.071787792,-2.704884052276611,-2.041370153427124,1.25076961517334,1757623.074564792,88.26715087890625,130.0154266357422,-441.0784912109375,0
2023-02-13T13:25:57.598Z,208,1757623.110826792,-1.046127319335938,0.6412200927734375,-0.221038818359375,1757623.091806792,-2.547854900360107,-1.759281277656555,1.174613237380981,1757623.094156792,88.94068908691406,130.322998046875,-439.5176391601562,0
2023-02-13T13:25:57.610Z,209,1757623.130845792,-0.96038818359375,0.615142822265625,-0.1260833740234375,1757623.111826792,-1.704051852226257,-1.976961970329285,0.9663242697715759,1757623.113748792,89.93171691894531,130.7529449462891,-437.575927734375,0
2023-02-13T13:25:57.635Z,210,1757623.150834792,-1.161041259765625,0.5360870361328125,-0.1759490966796875,1757623.131845792,-0.7582246065139771,-2.766958475112915,0.920589804649353,1757623.133341792,91.01731872558594,130.94384765625,-435.77099609375,0
2023-02-13T13:25:57.650Z,211,1757623.170854792,-1.24298095703125,0.4444427490234375,-0.265869140625,1757623.151834792,-0.8087753653526306,-2.86616063117981,0.9200185537338257,1757623.152933792,92.09124755859375,131.3696594238281,-433.828125,0
2023-02-13T13:25:57.675Z,212,1757623.190873792,-1.225372314453125,0.4809722900390625,-0.4029541015625,1757623.171854792,-1.791642427444458,-1.661086320877075,0.6327207088470459,1757623.172525792,93.49453735351562,131.807861328125,-432.3857727050781,0
2023-02-13T13:25:57.690Z,213,1757623.210862792,-1.097320556640625,0.5746917724609375,-0.333038330078125,1757623.191873792,-2.522213697433472,-0.417553573846817,0.46485236287117,1757623.192118792,93.94473266601562,131.1273803710938,-431.0197143554688,0
2023-02-13T13:25:57.718Z,214,1757623.230882792,-0.95458984375,0.6241302490234375,-0.252471923828125,1757623.211862792,-1.702278137207031,-0.09623678773641586,0.4056130051612854,1757623.211679792,94.13031005859375,130.3432922363281,-430.242919921875,0
2023-02-13T13:25:57.730Z,215,1757623.250902792,-0.8955230712890625,0.5881500244140625,-0.2360992431640625,1757623.231882792,-0.09182419627904892,-0.6963564157485962,0.322744220495224,1757623.231272792,94.49873352050781,130.2227325439453,-429.7625732421875,0
2023-02-13T13:25:57.754Z,216,1757623.270921792,-0.9866790771484375,0.5055999755859375,-0.23077392578125,1757623.251902792,0.8460873365402222,-1.450209736824036,0.1850167214870453,1757623.250864792,95.29124450683594,130.7596588134766,-429.48486328125,0
2023-02-13T13:25:57.770Z,217,1757623.290910792,-1.086105346679688,0.4510345458984375,-0.256317138671875,1757623.271921792,0.8047521710395813,-1.300224184989929,0.09773162007331848,1757623.270456792,95.90838623046875,131.2069549560547,-429.1116943359375,0
2023-02-13T13:25:57.798Z,218,1757623.310930792,-1.054855346679688,0.456634521484375,-0.2608795166015625,1757623.291910792,0.1314506977796555,-0.4437164664268494,0.07746203243732452,1757623.290079792,96.19711303710938,131.6540069580078,-428.9215087890625,0
2023-02-13T13:25:57.810Z,219,1757623.330949792,-1.00701904296875,0.500091552734375,-0.246307373046875,1757623.311930792,-0.3152857720851898,0.2548149824142456,0.03485065698623657,1757623.309671792,96.34410095214844,131.5966491699219,-428.8746032714844,0
2023-02-13T13:25:57.837Z,220,1757623.350969792,-0.9739532470703125,0.5258636474609375,-0.28302001953125,1757623.331949792,-0.1522625088691711,0.4885124266147614,0.09461225569248199,1757623.329264792,96.12080383300781,131.4399108886719,-428.90380859375,0
2023-02-13T13:25:57.850Z,221,1757623.370958792,-1.009475708007812,0.5131683349609375,-0.32086181640625,1757623.351969792,0.2356900274753571,0.4110823571681976,0.06110942736268044,1757623.348856792,95.90870666503906,131.2119293212891,-429.0576782226562,0
2023-02-13T13:25:57.874Z,222,1757623.390977792,-1.0560302734375,0.5138092041015625,-0.34710693359375,1757623.371958792,0.551491379737854,0.4308667182922363,-0.04312669858336449,1757623.368448792,95.87754821777344,131.675537109375,-429.6029663085938,0
2023-02-13T13:25:57.890Z,223,1757623.410997792,-1.084213256835938,0.5169830322265625,-0.3521575927734375,1757623.391977792,0.7897753119468689,0.6521431803703308,-0.1683783531188965,1757623.388040792,95.45159912109375,131.9848022460938,-430.1130981445312,0
2023-02-13T13:25:57.919Z,224,1757623.430986792,-1.0865478515625,0.520111083984375,-0.358551025390625,1757623.411997792,0.9950690865516663,0.9548271298408508,-0.3100425601005554,1757623.407633792,94.72061157226562,132.2173461914062,-430.7921752929688,0
2023-02-13T13:25:57.930Z,225,1757623.451005792,-1.10675048828125,0.5377044677734375,-0.3614044189453125,1757623.452005792,1.353694677352905,1.458834886550903,-0.5098488926887512,1757623.427225792,94.26663208007812,132.166015625,-431.9217529296875,0
2023-02-13T13:25:57.958Z,226,1757623.471025792,-1.104110717773438,0.5467529296875,-0.3727874755859375,1757623.452005792,1.353694677352905,1.458834886550903,-0.5098488926887512,1757623.446817792,93.63565063476562,132.4282379150391,-432.8598937988281,0
2023-02-13T13:25:57.970Z,227,1757623.491044792,-1.138214111328125,0.5544586181640625,-0.3734283447265625,1757623.472025792,1.573243498802185,1.670090913772583,-0.4894123077392578,1757623.466410792,92.85499572753906,132.7402801513672,-434.065185546875,0
2023-02-13T13:25:57.994Z,228,1757623.511033792,-1.194091796875,0.5250244140625,-0.38623046875,1757623.492044792,1.725650072097778,1.816970705986023,-0.4706719219684601,1757623.486002792,91.97956848144531,132.8009643554688,-435.6832580566406,0
2023-02-13T13:25:58.011Z,229,1757623.531053792,-1.272567749023438,0.54168701171875,-0.4404296875,1757623.512033792,1.746649622917175,2.080417633056641,-0.6189945340156555,1757623.505594792,91.17718505859375,133.185546875,-437.2771606445312,0
2023-02-13T13:25:58.034Z,230,1757623.551072792,-1.317718505859375,0.574462890625,-0.4399261474609375,1757623.532053792,1.662946224212646,2.390512943267822,-0.8472516536712646,1757623.525186792,90.28800964355469,132.6866149902344,-439.3670654296875,0
2023-02-13T13:25:58.050Z,231,1757623.571092792,-1.316619873046875,0.612030029296875,-0.4727935791015625,1757623.552072792,1.673447608947754,2.866990089416504,-0.8889884352684021,1757623.544779792,89.27406311035156,132.7032623291016,-441.3628540039062,0
2023-02-13T13:25:58.075Z,232,1757623.591081792,-1.272140502929688,0.6154327392578125,-0.4791717529296875,1757623.572092792,1.809337496757507,3.212950944900513,-0.7561302781105042,1757623.564341792,88.57286071777344,132.1922912597656,-443.859619140625,0
2023-02-13T13:25:58.090Z,233,1757623.611101792,-1.239715576171875,0.575408935546875,-0.48394775390625,1757623.592081792,2.075751304626465,3.287922620773315,-0.5911543965339661,1757623.583933792,87.86669921875,131.8678741455078,-446.4464721679688,0
2023-02-13T13:25:58.115Z,234,1757623.631120792,-1.2095947265625,0.5119476318359375,-0.4942779541015625,1757623.612101792,2.25597071647644,3.140231847763062,-0.6562247276306152,1757623.603556792,87.36187744140625,131.7610626220703,-449.233642578125,0
2023-02-13T13:25:58.130Z,235,1757623.651109792,-1.158340454101562,0.4621124267578125,-0.522796630859375,1757623.632120792,2.374265193939209,2.922473907470703,-0.8526791930198669,1757623.623148792,87.06367492675781,131.2499237060547,-452.2493896484375,0
2023-02-13T13:25:58.154Z,236,1757623.671129792,-1.117034912109375,0.40625,-0.552978515625,1757623.652109792,2.501940011978149,2.808172702789307,-0.9182313084602356,1757623.642771792,86.65176391601562,130.2602996826172,-454.7884521484375,0
2023-02-13T13:25:58.170Z,237,1757623.691148792,-1.083511352539062,0.358489990234375,-0.591461181640625,1757623.672129792,2.419958353042603,2.892599582672119,-0.8530358076095581,1757623.681955792,86.87998962402344,128.0690155029297,-460.27490234375,0
2023-02-13T13:25:58.194Z,238,1757623.711168792,-1.045272827148438,0.323394775390625,-0.653167724609375,1757623.692148792,2.224637508392334,3.101542472839355,-0.7177181839942932,1757623.701548792,87.39704895019531,127.2162933349609,-463.0487060546875,0
2023-02-13T13:25:58.210Z,239,1757623.731157792,-0.9674530029296875,0.2843780517578125,-0.660736083984375,1757623.712168792,1.956447601318359,3.204880952835083,-0.6344267725944519,1757623.721140792,88.29374694824219,126.1746520996094,-465.5283813476562,0
2023-02-13T13:25:58.234Z,240,1757623.751176792,-0.9177703857421875,0.272705078125,-0.7117919921875,1757623.732157792,1.969880342483521,3.13481068611145,-0.668427050113678,1757623.740732792,88.72509765625,125.1532592773438,-467.8309631347656,0
2023-02-13T13:25:58.250Z,241,1757623.771196792,-0.853485107421875,0.2328033447265625,-0.74481201171875,1757623.752176792,2.057116270065308,2.889808416366577,-0.7380831241607666,1757623.760324792,89.87864685058594,123.8582000732422,-469.87158203125,0
2023-02-13T13:25:58.273Z,242,1757623.791215792,-0.8020477294921875,0.2004241943359375,-0.7534027099609375,1757623.772196792,2.174922466278076,2.807651996612549,-0.7056090235710144,1757623.779917792,90.82795715332031,122.3140106201172,-471.7504577636719,0
2023-02-13T13:25:58.290Z,243,1757623.811204792,-0.70257568359375,0.15521240234375,-0.754913330078125,1757623.792215792,2.244780302047729,2.832513809204102,-0.5937469601631165,1757623.799509792,91.78507995605469,121.2457275390625,-473.615478515625,0
2023-02-13T13:25:58.311Z,244,1757623.831224792,-0.655181884765625,0.1188201904296875,-0.7686767578125,1757623.812204792,2.24822998046875,2.834846258163452,-0.5619820952415466,1757623.819101792,93.44058227539062,120.1982421875,-475.882080078125,0
2023-02-13T13:25:58.330Z,245,1757623.8512425,-0.585205078125,0.078277587890625,-0.750579833984375,1757623.832224792,2.067179679870605,2.736437082290649,-0.550513744354248,1757623.838694792,94.6983642578125,118.5513916015625,-477.2626342773438,0
2023-02-13T13:25:58.354Z,246,1757623.8712315,-0.517333984375,0.0181884765625,-0.7274169921875,1757623.8522425,2.151778697967529,2.59938907623291,-0.7222822904586792,1757623.8582855,96.261474609375,117.2762298583984,-478.8018798828125,0
2023-02-13T13:25:58.370Z,247,1757623.8912515,-0.4380035400390625,-0.0313262939453125,-0.7187957763671875,1757623.8722315,2.226105213165283,2.531967878341675,-0.7086751461029053,1757623.8778775,97.75721740722656,115.5651397705078,-480.4835815429688,0
2023-02-13T13:25:58.399Z,248,1757623.9112705,-0.385101318359375,-0.077880859375,-0.71893310546875,1757623.8922515,1.986897945404053,2.655488252639771,-0.5379444360733032,1757623.8974395,99.42068481445312,114.2930908203125,-482.00634765625,0
2023-02-13T13:25:58.411Z,249,1757623.9312905,-0.310546875,-0.1119384765625,-0.707275390625,1757623.9322905,1.584257245063782,2.545117616653442,-0.5591671466827393,1757623.9170315,101.2079315185547,113.06884765625,-482.3507995605469,0
2023-02-13T13:25:58.435Z,250,1757623.9512795,-0.258575439453125,-0.1318206787109375,-0.7210693359375,1757623.9522795,1.739746451377869,2.218557357788086,-0.6418071985244751,1757623.9366545,102.6638336181641,111.8591918945312,-484.1801147460938,0
2023-02-13T13:25:58.450Z,251,1757623.9712985,-0.212677001953125,-0.173309326171875,-0.698089599609375,1757623.9522795,1.739746451377869,2.218557357788086,-0.6418071985244751,1757623.9562465,104.6011657714844,110.6044006347656,-484.7536926269531,0
2023-02-13T13:25:58.475Z,252,1757623.9913185,-0.148590087890625,-0.22381591796875,-0.679168701171875,1757623.9722985,1.988445520401001,2.05607008934021,-0.5043182969093323,1757623.9758395,106.0753631591797,109.2647552490234,-485.5078430175781,0
2023-02-13T13:25:58.490Z,253,1757624.0113385,-0.1158294677734375,-0.2733917236328125,-0.658050537109375,1757623.9923185,1.940227031707764,2.207736253738403,-0.3634306788444519,1757623.9954005,107.6414794921875,107.6518402099609,-485.9413452148438,0
2023-02-13T13:25:58.520Z,254,1757624.0313275,-0.0491180419921875,-0.342559814453125,-0.61444091796875,1757624.0123385,1.818021297454834,2.167302370071411,-0.386622279882431,1757624.0149935,109.3639373779297,106.2657928466797,-486.2580871582031,0
2023-02-13T13:25:58.530Z,255,1757624.0513465,-0.0158538818359375,-0.3622283935546875,-0.638824462890625,1757624.0323275,1.726144909858704,1.909909605979919,-0.4649666249752045,1757624.0345855,110.7268371582031,105.1962890625,-486.5562744140625,0
2023-02-13T13:25:58.555Z,256,1757624.0713665,-0.0193939208984375,-0.397979736328125,-0.6595458984375,1757624.0523465,1.606347441673279,1.656888604164124,-0.4022116363048553,1757624.0541775,112.0724182128906,104.0455017089844,-486.629150390625,0
2023-02-13T13:25:58.570Z,257,1757624.0913555,0.030364990234375,-0.4220733642578125,-0.67578125,1757624.0723665,1.450706124305725,1.781569838523865,-0.2763296067714691,1757624.0737695,113.3723602294922,103.0365600585938,-487.0664978027344,0
2023-02-13T13:25:58.594Z,258,1757624.1113745,0.07373046875,-0.4358978271484375,-0.58233642578125,1757624.0923555,1.37938928604126,2.051662683486938,-0.2971192896366119,1757624.0933625,115.1542358398438,101.6514739990234,-487.1656494140625,0
2023-02-13T13:25:58.610Z,259,1757624.1313945,0.176239013671875,-0.476348876953125,-0.5260009765625,1757624.1123745,1.621335625648499,1.945855379104614,-0.3132780194282532,1757624.1129235,116.7529754638672,100.5912017822266,-486.9621276855469,0
2023-02-13T13:25:58.634Z,260,1757624.1514135,0.18280029296875,-0.526641845703125,-0.5578460693359375,1757624.1323945,1.743955254554749,1.562425494194031,-0.4268786311149597,1757624.1325165,117.9420166015625,99.09646606445312,-486.7726745605469,0
2023-02-13T13:25:58.650Z,261,1757624.1714025,0.168670654296875,-0.5648040771484375,-0.6414794921875,1757624.1524135,1.583978652954102,1.153650522232056,-0.4893691539764404,1757624.1521085,119.0186767578125,98.037841796875,-486.6507263183594,0
2023-02-13T13:25:58.673Z,262,1757624.1914225,0.1816558837890625,-0.5516815185546875,-0.747955322265625,1757624.1724025,1.339752674102783,1.156202554702759,-0.4693746864795685,1757624.1717005,119.8781433105469,96.97050476074219,-486.4292907714844,0
2023-02-13T13:25:58.691Z,263,1757624.2114415,0.1602325439453125,-0.5243682861328125,-0.6558837890625,1757624.1924225,1.426938772201538,1.411148071289062,-0.4916094243526459,1757624.1912935,121.2762298583984,96.09941101074219,-485.9356689453125,0
2023-02-13T13:25:58.711Z,264,1757624.2314305,0.21356201171875,-0.55950927734375,-0.5795440673828125,1757624.2124415,1.978405117988586,1.956497192382812,-0.4811447858810425,1757624.2108855,122.3700714111328,94.40936279296875,-485.4484252929688,0
2023-02-13T13:25:58.730Z,265,1757624.2514505,0.2564697265625,-0.61383056640625,-0.473602294921875,1757624.2324305,2.167770862579346,2.057097434997559,-0.6783018112182617,1757624.2304775,123.943115234375,93.35191345214844,-484.3270874023438,0
2023-02-13T13:25:58.754Z,266,1757624.2714695,0.3326873779296875,-0.645416259765625,-0.3625640869140625,1757624.2524505,2.072076797485352,1.98523211479187,-0.8931046724319458,1757624.2500695,125.8512420654297,91.61073303222656,-483.8913879394531,0
2023-02-13T13:25:58.771Z,267,1757624.2914895,0.3878326416015625,-0.667449951171875,-0.2861328125,1757624.2724695,2.124226808547974,1.75971782207489,-1.031414270401001,1757624.2696625,127.2107543945312,90.46464538574219,-483.3482360839844,0
2023-02-13T13:25:58.799Z,268,1757624.3114785,0.3587493896484375,-0.6663818359375,-0.17523193359375,1757624.2924895,2.174571514129639,1.727298021316528,-0.9476637840270996,1757624.2892545,128.4380798339844,88.96969604492188,-482.2855529785156,0
2023-02-13T13:25:58.811Z,269,1757624.3314975,0.4239501953125,-0.6635589599609375,-0.0337066650390625,1757624.3124785,1.960305213928223,2.263314247131348,-0.8675122261047363,1757624.3088775,130.1290893554688,87.42170715332031,-481.3122863769531,0
2023-02-13T13:25:58.833Z,270,1757624.3515175,0.4958953857421875,-0.650177001953125,0.1407470703125,1757624.3324975,1.708302736282349,2.68120002746582,-1.075452923774719,1757624.3284695,131.6430358886719,86.44795227050781,-480.8975219726562,0
2023-02-13T13:25:58.850Z,271,1757624.3715375,0.56512451171875,-0.6887664794921875,0.311553955078125,1757624.3525175,1.715520739555359,2.405052185058594,-1.272998929023743,1757624.3480315,133.5341796875,84.91606140136719,-479.4523620605469,0
2023-02-13T13:25:58.875Z,272,1757624.3915265,0.693817138671875,-0.7345123291015625,0.47747802734375,1757624.3725375,1.901000380516052,1.590056538581848,-1.23777174949646,1757624.3676545,135.0854644775391,83.26968383789062,-478.77392578125,0
2023-02-13T13:25:58.890Z,273,1757624.4115455,0.773590087890625,-0.739776611328125,0.563446044921875,1757624.3925265,1.813998579978943,0.6547863483428955,-0.8714331984519958,1757624.3872155,136.5601348876953,81.78814697265625,-478.1650390625,0
2023-02-13T13:25:58.913Z,274,1757624.4315655,0.760650634765625,-0.6944122314453125,0.62408447265625,1757624.4125455,1.317737698554993,0.03825897350907326,-0.5811813473701477,1757624.4068085,137.2557830810547,80.11927795410156,-478.5760192871094,0
2023-02-13T13:25:58.930Z,275,1757624.4515545,0.7754669189453125,-0.6820068359375,0.586761474609375,1757624.4325655,0.5478447079658508,-0.5044314861297607,-0.3092542588710785,1757624.4264005,137.5805816650391,79.03952026367188,-478.3785400390625,0
2023-02-13T13:25:58.954Z,276,1757624.4715735,0.7158660888671875,-0.64605712890625,0.47271728515625,1757624.4525545,-0.3853221237659454,-0.8549932241439819,-0.1376036703586578,1757624.4459925,137.4548950195312,79.47550964355469,-478.0115966796875,0
2023-02-13T13:25:58.970Z,277,1757624.4915935,0.679290771484375,-0.6274566650390625,0.33038330078125,1757624.4725735,-1.15325927734375,-0.9677588939666748,0.0233314223587513,1757624.4655855,137.1788787841797,80.587158203125,-478.109130859375,0
2023-02-13T13:25:58.993Z,278,1757624.5116125,0.6598052978515625,-0.6225738525390625,0.1978607177734375,1757624.4925935,-1.633772611618042,-1.160354971885681,0.1823559552431107,1757624.4851775,136.7792053222656,82.01841735839844,-479.0142822265625,0
2023-02-13T13:25:59.011Z,279,1757624.5316015,0.6386566162109375,-0.601593017578125,0.0323944091796875,1757624.5126125,-1.853799819946289,-1.55128014087677,0.3354461789131165,1757624.5047695,135.95703125,83.67231750488281,-480.0672302246094,0
2023-02-13T13:25:59.034Z,280,1757624.5516215,0.578399658203125,-0.570587158203125,-0.10321044921875,1757624.5326015,-1.85703182220459,-1.87383770942688,0.5057153701782227,1757624.5243615,135.0182495117188,85.28054809570312,-480.84130859375,0
2023-02-13T13:25:59.051Z,281,1757624.5716405,0.5346221923828125,-0.5492095947265625,-0.1502227783203125,1757624.5526215,-1.680949926376343,-1.909820437431335,0.5988852977752686,1757624.5439545,133.8622131347656,86.89671325683594,-480.9696044921875,0
2023-02-13T13:25:59.074Z,282,1757624.5916605,0.505279541015625,-0.5601348876953125,-0.1604156494140625,1757624.5726405,-1.327689170837402,-1.814684391021729,0.4629404842853546,1757624.5635465,132.5789031982422,88.02156066894531,-481.6538696289062,0
2023-02-13T13:25:59.091Z,283,1757624.6116495,0.5201568603515625,-0.59759521484375,-0.1951446533203125,1757624.5926605,-1.090200901031494,-2.024864912033081,0.3172684907913208,1757624.5831385,131.5592803955078,88.79096984863281,-481.7505493164062,0
2023-02-13T13:25:59.114Z,284,1757624.6316685,0.4765625,-0.6324920654296875,-0.2894439697265625,1757624.6126495,-1.2770174741745,-2.343892335891724,0.4060183465480804,1757624.6223235,128.4781188964844,90.71490478515625,-483.412109375,0
2023-02-13T13:25:59.131Z,285,1757624.6516885,0.4015960693359375,-0.5795440673828125,-0.3326568603515625,1757624.6326685,-1.672085165977478,-2.438649892807007,0.7019924521446228,1757624.6419155,126.6990356445312,92.09921264648438,-484.3731079101562,0
2023-02-13T13:25:59.151Z,286,1757624.6716775,0.372222900390625,-0.5340423583984375,-0.3115386962890625,1757624.6526885,-1.861060857772827,-1.978049516677856,0.8118491768836975,1757624.6615075,125.0954284667969,92.9864501953125,-484.5657653808594,0
2023-02-13T13:25:59.171Z,287,1757624.6916965,0.360015869140625,-0.509490966796875,-0.2932891845703125,1757624.6726775,-1.73295271396637,-1.61614191532135,0.702790379524231,1757624.6811005,123.6815338134766,94.01026916503906,-484.93017578125,0
2023-02-13T13:25:59.193Z,288,1757624.7117165,0.3182220458984375,-0.5209197998046875,-0.3714447021484375,1757624.6926965,-1.532231092453003,-1.907923221588135,0.6298386454582214,1757624.7006925,122.2203674316406,95.13742065429688,-485.8433227539062,0
2023-02-13T13:25:59.211Z,289,1757624.7317365,0.2300262451171875,-0.5059356689453125,-0.446807861328125,1757624.7127165,-1.641509413719177,-2.597578763961792,0.7010601162910461,1757624.7202845,120.1712951660156,96.35220336914062,-486.1002502441406,0
2023-02-13T13:25:59.233Z,290,1757624.7517255,0.135498046875,-0.4818878173828125,-0.4951934814453125,1757624.7327365,-1.819545984268188,-2.756994962692261,0.6667647361755371,1757624.7398775,117.9593505859375,97.74565124511719,-486.1550598144531,0
2023-02-13T13:25:59.251Z,291,1757624.7717445,0.0859832763671875,-0.412109375,-0.5403900146484375,1757624.7527255,-1.873323440551758,-2.493256568908691,0.7331905961036682,1757624.7594695,116.2224731445312,99.17169189453125,-486.0027770996094,0
2023-02-13T13:25:59.274Z,292,1757624.7917645,0.0456390380859375,-0.38421630859375,-0.5583648681640625,1757624.7727445,-1.711949706077576,-2.082298517227173,0.8284516334533691,1757624.7790615,114.2854461669922,100.2716522216797,-486.292236328125,0
2023-02-13T13:25:59.291Z,293,1757624.8117835,-0.0178680419921875,-0.4058074951171875,-0.615692138671875,1757624.7927645,-1.538230419158936,-2.059309005737305,0.6761185526847839,1757624.7986535,112.6325531005859,101.4534149169922,-486.4915466308594,0
2023-02-13T13:25:59.314Z,294,1757624.8317725,-0.085296630859375,-0.4011993408203125,-0.7008209228515625,1757624.8127835,-1.724270820617676,-2.705480813980103,0.4499575793743134,1757624.8182465,110.6132354736328,102.4272918701172,-485.910400390625,0
2023-02-13T13:25:59.331Z,295,1757624.851782042,-0.156524658203125,-0.35736083984375,-0.7955169677734375,1757624.8327725,-1.979229092597961,-3.033853054046631,0.4735971093177795,1757624.8378385,108.1925506591797,103.92333984375,-485.4935302734375,0
2023-02-13T13:25:59.351Z,296,1757624.871801042,-0.22503662109375,-0.3078460693359375,-0.83331298828125,1757624.852782042,-2.199723482131958,-2.633656024932861,0.8581149578094482,1757624.857420042,106.2487487792969,105.6763916015625,-485.0260009765625,0
2023-02-13T13:25:59.371Z,297,1757624.891790042,-0.30615234375,-0.2600860595703125,-0.88275146484375,1757624.872801042,-2.151965856552124,-2.225765705108643,0.9998388290405273,1757624.877013042,104.6260681152344,107.2589569091797,-484.2442626953125,0
2023-02-13T13:25:59.394Z,298,1757624.911810042,-0.3328704833984375,-0.2286376953125,-0.9301300048828125,1757624.892790042,-2.016095399856567,-2.187764883041382,0.4481370449066162,1757624.896605042,103.1134338378906,108.8007354736328,-483.000244140625,0
2023-02-13T13:25:59.411Z,299,1757624.931829042,-0.26788330078125,-0.2093963623046875,-0.9063720703125,1757624.912810042,-1.671819090843201,-2.45218563079834,-0.05617272481322289,1757624.916197042,101.3541870117188,109.9194030761719,-482.4054565429688,0
2023-02-13T13:25:59.433Z,300,1757624.951849042,-0.349761962890625,-0.218353271484375,-0.97161865234375,1757624.932829042,-1.129668235778809,-2.725990056991577,0.08701212704181671,1757624.935820042,99.69140625,110.4862365722656,-481.8342895507812,0
2023-02-13T13:25:59.451Z,301,1757624.971838042,-0.5672149658203125,-0.1963653564453125,-1.075164794921875,1757624.952849042,-1.328162908554077,-2.803656816482544,0.7566338777542114,1757624.955412042,97.69671630859375,111.2428588867188,-480.5552368164062,0
2023-02-13T13:25:59.478Z,302,1757624.991857042,-0.59527587890625,-0.167510986328125,-1.105850219726562,1757624.972838042,-2.091407299041748,-2.305986166000366,0.5702009201049805,1757624.974974042,96.06816101074219,112.8822784423828,-479.0139770507812,0
2023-02-13T13:25:59.491Z,303,1757625.011877042,-0.4479827880859375,-0.112823486328125,-1.030715942382812,1757624.992857042,-2.335152387619019,-1.741866111755371,0.2118568569421768,1757624.994597042,95.10719299316406,114.0242614746094,-478.5792541503906,0
2023-02-13T13:25:59.518Z,304,1757625.031896042,-0.294891357421875,-0.086090087890625,-0.87445068359375,1757625.012877042,-1.586869239807129,-1.704407095909119,0.2076703757047653,1757625.014189042,94.08270263671875,115.0624237060547,-477.307373046875,0
2023-02-13T13:25:59.531Z,305,1757625.051885042,-0.41796875,-0.0820770263671875,-0.7574005126953125,1757625.032896042,-0.3523990511894226,-2.16728401184082,0.521075963973999,1757625.033781042,92.89027404785156,115.572265625,-476.3837280273438,0
2023-02-13T13:25:59.555Z,306,1757625.071905042,-0.6942901611328125,-0.1413726806640625,-0.85650634765625,1757625.052885042,0.1055559888482094,-2.81671929359436,0.65355384349823,1757625.053374042,91.49508666992188,115.8873291015625,-475.2809143066406,0
2023-02-13T13:25:59.571Z,307,1757625.091924042,-0.8410186767578125,-0.126922607421875,-0.9725799560546875,1757625.072905042,-1.048567771911621,-2.58828592300415,0.5006670951843262,1757625.072966042,90.48908996582031,116.5672302246094,-473.31640625,0
2023-02-13T13:25:59.597Z,308,1757625.111913042,-0.6748809814453125,-0.062774658203125,-0.8956298828125,1757625.092924042,-2.371580362319946,-1.567273736000061,0.7180175185203552,1757625.092558042,89.37590026855469,117.8536071777344,-471.8544311523438,0
2023-02-13T13:25:59.611Z,309,1757625.131933042,-0.55694580078125,0.034942626953125,-0.76239013671875,1757625.132933042,-1.311077117919922,-1.673747181892395,0.9781454801559448,1757625.112151042,88.84855651855469,119.1373443603516,-470.709228515625,0
2023-02-13T13:25:59.639Z,310,1757625.151953042,-0.73486328125,0.0611572265625,-0.7393035888671875,1757625.132933042,-1.311077117919922,-1.673747181892395,0.9781454801559448,1757625.131743042,88.61976623535156,120.5243225097656,-469.6005249023438,0
2023-02-13T13:25:59.651Z,311,1757625.171972042,-0.835723876953125,0.037689208984375,-0.792877197265625,1757625.152953042,-0.8179731369018555,-2.401167631149292,0.1229592114686966,1757625.151335042,87.78288269042969,121.1589965820312,-468.189697265625,0
2023-02-13T13:25:59.674Z,312,1757625.191961042,-0.8140106201171875,0.0604705810546875,-0.80462646484375,1757625.172972042,-1.009186029434204,-2.289354085922241,0.1437310725450516,1757625.170927042,87.06779479980469,121.3769836425781,-466.6086730957031,0
2023-02-13T13:25:59.691Z,313,1757625.211981042,-0.7352752685546875,0.097442626953125,-0.7216796875,1757625.192961042,-1.243401408195496,-1.890307784080505,0.52862149477005,1757625.190520042,86.33085632324219,121.950927734375,-465.0751647949219,0
2023-02-13T13:25:59.714Z,314,1757625.232000042,-0.738372802734375,0.1460418701171875,-0.6127166748046875,1757625.212981042,-1.096841216087341,-1.706924915313721,0.88502436876297,1757625.210112042,86.0703125,122.8076782226562,-463.7574768066406,0
2023-02-13T13:25:59.731Z,315,1757625.252020042,-0.8142547607421875,0.1519317626953125,-0.530303955078125,1757625.233000042,-0.8204666376113892,-1.907698392868042,0.8916260600090027,1757625.229735042,85.76051330566406,123.9669494628906,-462.3414916992188,0
2023-02-13T13:25:59.755Z,316,1757625.272009042,-0.9585723876953125,0.14178466796875,-0.56732177734375,1757625.253020042,-0.7028700113296509,-2.30584192276001,0.4864436686038971,1757625.249327042,85.33885192871094,124.3157806396484,-460.8226928710938,0
2023-02-13T13:25:59.771Z,317,1757625.292028042,-1.043289184570312,0.1793670654296875,-0.6236724853515625,1757625.273009042,-1.061866283416748,-2.458217859268188,0.2514705955982208,1757625.268919042,85.04324340820312,124.8594512939453,-458.9754638671875,0
2023-02-13T13:25:59.797Z,318,1757625.312048042,-1.001327514648438,0.22210693359375,-0.6155853271484375,1757625.293028042,-1.403824090957642,-2.055999279022217,0.449538379907608,1757625.288512042,84.97607421875,125.1992950439453,-457.072509765625,0
2023-02-13T13:25:59.811Z,319,1757625.332037042,-0.945098876953125,0.2787017822265625,-0.5584716796875,1757625.333037042,-1.176816821098328,-1.840668559074402,0.7870975136756897,1757625.308104042,84.94392395019531,126.1207733154297,-455.4999389648438,0
2023-02-13T13:25:59.836Z,320,1757625.352056042,-0.93450927734375,0.3124847412109375,-0.480255126953125,1757625.333037042,-1.176816821098328,-1.840668559074402,0.7870975136756897,1757625.327727042,84.78390502929688,126.4620666503906,-453.7669067382812,0
2023-02-13T13:25:59.851Z,321,1757625.372076042,-0.9800567626953125,0.309112548828125,-0.4170684814453125,1757625.353056042,-0.9188640713691711,-2.258996963500977,0.7401438355445862,1757625.347319042,84.99563598632812,127.1335601806641,-452.4605712890625,0
2023-02-13T13:25:59.873Z,322,1757625.392095042,-1.057327270507812,0.29937744140625,-0.3694915771484375,1757625.373076042,-0.6918700933456421,-2.675153017044067,0.7092841863632202,1757625.366881042,85.06161499023438,127.9028625488281,-450.5959167480469,0
2023-02-13T13:25:59.891Z,323,1757625.412084042,-1.14080810546875,0.338623046875,-0.3399505615234375,1757625.393095042,-0.7469868659973145,-2.717766761779785,0.8320958614349365,1757625.386473042,85.56820678710938,128.4884796142578,-448.452392578125,0
2023-02-13T13:25:59.914Z,324,1757625.432104042,-1.1392822265625,0.347747802734375,-0.350067138671875,1757625.413084042,-1.059188961982727,-2.432757377624512,0.9127640724182129,1757625.406065042,86.10516357421875,129.1324310302734,-446.5325317382812,0
2023-02-13T13:25:59.931Z,325,1757625.452123042,-1.116683959960938,0.3946533203125,-0.33056640625,1757625.433104042,-1.408295512199402,-2.148706912994385,0.9697616100311279,1757625.425658042,86.6583251953125,129.6924896240234,-444.5466918945312,0
2023-02-13T13:25:59.954Z,326,1757625.472143042,-1.0938720703125,0.4572296142578125,-0.2672271728515625,1757625.453123042,-1.545727729797363,-2.012958288192749,0.9246031641960144,1757625.445250042,87.32418823242188,130.4322509765625,-442.808349609375,0
2023-02-13T13:25:59.971Z,327,1757625.492132042,-1.017776489257812,0.4400482177734375,-0.1795806884765625,1757625.473143042,-1.338728189468384,-1.629224419593811,0.6380334496498108,1757625.464842042,87.99916076660156,130.8308868408203,-440.9880981445312,0
2023-02-13T13:25:59.994Z,328,1757625.512152042,-1.04705810546875,0.435455322265625,-0.1682281494140625,1757625.513152042,-0.5909490585327148,-2.333316087722778,0.8579306602478027,1757625.484465042,88.88612365722656,130.88818359375,-439.6176147460938,0
2023-02-13T13:26:00.011Z,329,1757625.532171042,-1.143035888671875,0.4061431884765625,-0.2330474853515625,1757625.513152042,-0.5909490585327148,-2.333316087722778,0.8579306602478027,1757625.504057042,89.3004150390625,131.2093811035156,-438.2460327148438,0
2023-02-13T13:26:00.031Z,330,1757625.552160042,-1.178253173828125,0.4094085693359375,-0.3615570068359375,1757625.533171042,-1.198054432868958,-2.153000831604004,0.842736542224884,1757625.523650042,90.51129150390625,131.6199188232422,-436.6578369140625,0
2023-02-13T13:26:00.051Z,331,1757625.572180042,-1.137908935546875,0.466156005859375,-0.4239501953125,1757625.553160042,-2.054442405700684,-1.305250644683838,0.678737998008728,1757625.562834042,92.18528747558594,131.9151763916016,-433.7908935546875,0
2023-02-13T13:26:00.071Z,332,1757625.592199042,-1.061309814453125,0.519744873046875,-0.403717041015625,1757625.573180042,-1.939410090446472,-0.5141120553016663,0.4929015934467316,1757625.582426042,92.50630187988281,131.8128204345703,-432.635009765625,0
2023-02-13T13:26:00.091Z,333,1757625.612219042,-0.9854888916015625,0.515838623046875,-0.3593597412109375,1757625.593199042,-0.7849776148796082,-0.3270276486873627,0.3621473014354706,1757625.602019042,92.89222717285156,131.5874786376953,-432.3296508789062,0
2023-02-13T13:26:00.113Z,334,1757625.632208042,-1.003692626953125,0.46331787109375,-0.34124755859375,1757625.613219042,0.3526715040206909,-0.6057791113853455,0.2266786843538284,1757625.621611042,93.09951782226562,131.8581695556641,-432.2376098632812,0
2023-02-13T13:26:00.131Z,335,1757625.652227042,-1.060806274414062,0.4066925048828125,-0.3086090087890625,1757625.633208042,0.6712734699249268,-0.8046240210533142,0.06760434061288834,1757625.641203042,93.58125305175781,131.9899291992188,-432.0252685546875,0
2023-02-13T13:26:00.154Z,336,1757625.672247042,-1.06219482421875,0.39947509765625,-0.31646728515625,1757625.653227042,0.5603067278862,-0.5357992649078369,-0.06045295670628548,1757625.660796042,93.60813903808594,132.3880157470703,-431.9182434082031,0
2023-02-13T13:26:00.171Z,337,1757625.692236042,-1.03814697265625,0.4148406982421875,-0.3073883056640625,1757625.673247042,0.3026764988899231,-0.04965091124176979,-0.06599153578281403,1757625.680388042,93.67063903808594,132.513427734375,-432.101318359375,0
2023-02-13T13:26:00.197Z,338,1757625.712255042,-1.021636962890625,0.425994873046875,-0.3125457763671875,1757625.693236042,0.1646017283201218,0.3769872188568115,0.002894323552027345,1757625.699980042,93.68424987792969,132.5032501220703,-432.5382385253906,0
2023-02-13T13:26:00.211Z,339,1757625.732275042,-1.036148071289062,0.435516357421875,-0.3421173095703125,1757625.713255042,0.1761111170053482,0.5069375038146973,0.08599214255809784,1757625.719542042,93.29768371582031,132.3876190185547,-432.7478637695312,0
2023-02-13T13:26:00.239Z,340,1757625.752294042,-1.080841064453125,0.43365478515625,-0.386932373046875,1757625.733275042,0.3217753767967224,0.5652042627334595,0.113832026720047,1757625.739134042,93.38304138183594,132.6053619384766,-433.3265380859375,0
2023-02-13T13:26:00.251Z,341,1757625.772283042,-1.130035400390625,0.442535400390625,-0.4203033447265625,1757625.753294042,0.5043779611587524,0.7392277121543884,-0.06471294909715652,1757625.758726042,92.98512268066406,132.9320373535156,-433.8654174804688,0
2023-02-13T13:26:00.277Z,342,1757625.792303042,-1.117660522460938,0.4620819091796875,-0.4240264892578125,1757625.773283042,0.680073082447052,1.120646476745605,-0.3095064461231232,1757625.778319042,92.31063842773438,132.9735107421875,-434.3698425292969,0
2023-02-13T13:26:00.291Z,343,1757625.812322042,-1.10205078125,0.4832916259765625,-0.402618408203125,1757625.793303042,0.9235240817070007,1.448057293891907,-0.4073387384414673,1757625.797911042,91.55819702148438,133.0090637207031,-435.4197082519531,0
2023-02-13T13:26:00.318Z,344,1757625.832342042,-1.111984252929688,0.465972900390625,-0.3943634033203125,1757625.813322042,1.231802225112915,1.625645160675049,-0.4260980486869812,1757625.817503042,90.92280578613281,133.0166473388672,-436.82666015625,0
2023-02-13T13:26:00.331Z,345,1757625.852296042,-1.14678955078125,0.4295196533203125,-0.398712158203125,1757625.833342042,1.458947539329529,1.750755190849304,-0.4670950174331665,1757625.837096042,90.2786865234375,132.8181457519531,-438.530029296875,0
2023-02-13T13:26:00.359Z,346,1757625.872316042,-1.240936279296875,0.4570770263671875,-0.46636962890625,1757625.853296042,1.513633728027344,2.08251428604126,-0.6097381711006165,1757625.856653042,89.68612670898438,133.0052185058594,-440.166259765625,0
2023-02-13T13:26:00.371Z,347,1757625.892335042,-1.242996215820312,0.481475830078125,-0.47589111328125,1757625.873316042,1.26606011390686,2.427316665649414,-0.7137455344200134,1757625.876245042,88.84738159179688,132.8391876220703,-442.3045959472656,0
2023-02-13T13:26:00.397Z,348,1757625.912324042,-1.209182739257812,0.5361480712890625,-0.5037078857421875,1757625.913324042,1.457870006561279,3.292795896530151,-0.6903552412986755,1757625.895837042,88.09390258789062,132.4523468017578,-444.5322875976562,0
2023-02-13T13:26:00.411Z,349,1757625.932344042,-1.14239501953125,0.5108795166015625,-0.524383544921875,1757625.913324042,1.457870006561279,3.292795896530151,-0.6903552412986755,1757625.915460042,87.23765563964844,132.2201080322266,-447.0985107421875,0
2023-02-13T13:26:00.434Z,350,1757625.952363042,-1.116912841796875,0.4628143310546875,-0.5411224365234375,1757625.933344042,1.982499957084656,3.190928936004639,-0.5967171788215637,1757625.935053042,86.70785522460938,131.3750457763672,-450.0431518554688,0
2023-02-13T13:26:00.451Z,351,1757625.972383042,-1.131698608398438,0.3933563232421875,-0.542449951171875,1757625.953363042,2.285971879959106,2.801496028900146,-0.7141319513320923,1757625.954645042,86.69293212890625,131.0530548095703,-452.3115844726562,0
2023-02-13T13:26:00.477Z,352,1757625.992372042,-1.138168334960938,0.3561553955078125,-0.6297760009765625,1757625.973383042,2.339001893997192,2.480752229690552,-0.9128812551498413,1757625.974237042,86.38713073730469,129.9605407714844,-455.1523742675781,0
2023-02-13T13:26:00.491Z,353,1757626.012391042,-1.11468505859375,0.31097412109375,-0.687255859375,1757625.993372042,1.999385237693787,2.463280439376831,-1.012482166290283,1757625.993829042,86.30082702636719,129.0713043212891,-457.327392578125,0
2023-02-13T13:26:00.518Z,354,1757626.032411042,-1.098297119140625,0.2893524169921875,-0.74517822265625,1757626.013391042,1.697178483009338,2.825870037078857,-0.8957523703575134,1757626.013422042,86.39752197265625,128.2500457763672,-459.6260375976562,0
2023-02-13T13:26:00.531Z,355,1757626.052430042,-1.035858154296875,0.266448974609375,-0.7738800048828125,1757626.033411042,1.458922266960144,3.19533634185791,-0.7421889305114746,1757626.033014042,86.95046997070312,127.3333282470703,-461.888916015625,0
2023-02-13T13:26:00.554Z,356,1757626.072419042,-0.931182861328125,0.2287445068359375,-0.7647552490234375,1757626.053430042,1.44224739074707,3.377053499221802,-0.7529789805412292,1757626.052606042,87.29936218261719,126.2821350097656,-464.3522033691406,0
2023-02-13T13:26:00.571Z,357,1757626.092439042,-0.8347930908203125,0.1886444091796875,-0.7806549072265625,1757626.073419042,1.622094631195068,3.146226644515991,-0.8240225315093994,1757626.072199042,88.04475402832031,125.3946533203125,-466.78173828125,0
2023-02-13T13:26:00.598Z,358,1757626.112458042,-0.844329833984375,0.165679931640625,-0.836883544921875,1757626.113458042,1.813708305358887,2.474587440490723,-0.8186578154563904,1757626.091791042,88.81813049316406,124.1802825927734,-468.875732421875,0
2023-02-13T13:26:00.611Z,359,1757626.132447042,-0.8251190185546875,0.1319427490234375,-0.9069671630859375,1757626.113458042,1.813708305358887,2.474587440490723,-0.8186578154563904,1757626.111383042,89.7020263671875,123.1012725830078,-470.8262939453125,0
2023-02-13T13:26:00.639Z,360,1757626.152467042,-0.8007965087890625,0.129058837890625,-0.9278717041015625,1757626.133447042,1.684026956558228,2.574563503265381,-0.8944284915924072,1757626.130945042,90.66282653808594,121.7718811035156,-472.5975341796875,0
2023-02-13T13:26:00.651Z,361,1757626.172486042,-0.721435546875,0.0916900634765625,-0.885467529296875,1757626.153467042,1.793828010559082,2.73678994178772,-0.946373462677002,1757626.150537042,91.93182373046875,120.5101165771484,-474.4166259765625,0
2023-02-13T13:26:00.673Z,362,1757626.192506042,-0.6048431396484375,0.04510498046875,-0.825042724609375,1757626.173486042,2.102035045623779,2.788768291473389,-1.030059814453125,1757626.170129042,93.34303283691406,119.0395050048828,-476.0787963867188,0
2023-02-13T13:26:00.691Z,363,1757626.212495042,-0.5088958740234375,0.0028228759765625,-0.75860595703125,1757626.193506042,2.334559440612793,2.601340770721436,-1.005500674247742,1757626.189722042,94.78102111816406,117.3020324707031,-477.9555053710938,0
2023-02-13T13:26:00.714Z,364,1757626.232514042,-0.4832611083984375,-0.06024169921875,-0.750335693359375,1757626.213495042,2.583971500396729,2.274384498596191,-1.09400737285614,1757626.209284042,96.09419250488281,115.4546203613281,-479.1138610839844,0
2023-02-13T13:26:00.731Z,365,1757626.252534042,-0.445159912109375,-0.112518310546875,-0.752960205078125,1757626.233514042,2.399073600769043,2.288834095001221,-1.152837157249451,1757626.228876042,97.40472412109375,113.5001068115234,-480.2490234375,0
2023-02-13T13:26:00.761Z,366,1757626.272554042,-0.37353515625,-0.0998687744140625,-0.7484283447265625,1757626.253534042,1.969338893890381,2.517786026000977,-1.112494468688965,1757626.248468042,99.00895690917969,111.9045562744141,-481.3624267578125,0
2023-02-13T13:26:00.772Z,367,1757626.292543042,-0.2772216796875,-0.1411895751953125,-0.666900634765625,1757626.273554042,2.134628534317017,2.447125911712646,-1.111768245697021,1757626.268060042,100.8406219482422,110.3634490966797,-482.2750244140625,0
2023-02-13T13:26:00.798Z,368,1757626.312562042,-0.2217254638671875,-0.209747314453125,-0.64508056640625,1757626.313562042,2.540955781936646,2.027276992797852,-1.119006514549255,1757626.287653042,102.400390625,108.4100952148438,-483.1717529296875,0
2023-02-13T13:26:00.812Z,369,1757626.332582042,-0.2060699462890625,-0.286956787109375,-0.607513427734375,1757626.313562042,2.540955781936646,2.027276992797852,-1.119006514549255,1757626.307245042,103.8505554199219,106.4049530029297,-483.5637817382812,0
2023-02-13T13:26:00.838Z,370,1757626.352571042,-0.1720428466796875,-0.3395538330078125,-0.639617919921875,1757626.333582042,2.078147649765015,2.096195936203003,-1.043157577514648,1757626.326837042,105.7408752441406,104.3880462646484,-484.2564086914062,0
2023-02-13T13:26:00.851Z,371,1757626.372590042,-0.12176513671875,-0.367523193359375,-0.6051788330078125,1757626.353571042,1.511766791343689,2.39216947555542,-0.9523059129714966,1757626.346430042,107.401611328125,103.1284942626953,-484.3752746582031,0
2023-02-13T13:26:00.878Z,372,1757626.392610042,-0.051971435546875,-0.37420654296875,-0.6082305908203125,1757626.373590042,1.280951499938965,2.563469886779785,-0.8281882405281067,1757626.366022042,109.0446166992188,101.7589569091797,-485.1851501464844,0
2023-02-13T13:26:00.892Z,373,1757626.412629042,-0.01519775390625,-0.40838623046875,-0.64874267578125,1757626.393610042,1.272968888282776,2.45531439781189,-0.8374118208885193,1757626.385584042,111.1554412841797,100.7580413818359,-485.6107482910156,0
2023-02-13T13:26:00.914Z,374,1757626.432618042,0.006744384765625,-0.417144775390625,-0.6632537841796875,1757626.413629042,1.274839997291565,2.236487150192261,-0.8369697332382202,1757626.405176042,113.3828125,99.59962463378906,-485.8938598632812,0
2023-02-13T13:26:00.932Z,375,1757626.452638042,0.0492095947265625,-0.481353759765625,-0.6842193603515625,1757626.433618042,1.359261751174927,2.089012384414673,-0.8668181896209717,1757626.424768042,115.193359375,98.86660766601562,-485.6549682617188,0
2023-02-13T13:26:00.954Z,376,1757626.472657042,0.0614776611328125,-0.5312652587890625,-0.724090576171875,1757626.453638042,1.322141766548157,2.098203420639038,-0.8453326225280762,1757626.444360042,116.7708892822266,97.81317138671875,-485.8714904785156,0
2023-02-13T13:26:00.971Z,377,1757626.492677042,0.1011962890625,-0.552581787109375,-0.6900634765625,1757626.473657042,1.192437767982483,2.207134246826172,-0.7811147570610046,1757626.483545042,120.4703369140625,95.98814392089844,-484.933837890625,0
2023-02-13T13:26:00.994Z,378,1757626.512666042,0.15692138671875,-0.5290679931640625,-0.6048431396484375,1757626.493677042,1.071086645126343,2.617401838302612,-0.6791577339172363,1757626.503137042,122.4854583740234,95.19194030761719,-485.6062622070312,0
2023-02-13T13:26:01.012Z,379,1757626.532685042,0.2643890380859375,-0.4595184326171875,-0.4703216552734375,1757626.513666042,1.21306324005127,2.746716260910034,-0.6947454810142517,1757626.522730042,124.6678009033203,94.32926940917969,-484.9942016601562,0
2023-02-13T13:26:01.033Z,380,1757626.552705042,0.3404388427734375,-0.42462158203125,-0.3598175048828125,1757626.533685042,1.822152614593506,2.495342254638672,-1.055546760559082,1757626.542322042,126.4054870605469,93.1856689453125,-484.729736328125,0
2023-02-13T13:26:01.051Z,381,1757626.572694042,0.4258270263671875,-0.4389190673828125,-0.2182769775390625,1757626.553705042,2.602389574050903,1.962531089782715,-1.500153779983521,1757626.561914042,128.3102416992188,91.52285766601562,-483.0957946777344,0
2023-02-13T13:26:01.078Z,382,1757626.592713042,0.5035400390625,-0.465911865234375,-0.090179443359375,1757626.573694042,3.082156419754028,1.820316076278687,-1.528765559196472,1757626.581537042,130.0528869628906,89.78610229492188,-481.5504150390625,0
2023-02-13T13:26:01.092Z,383,1757626.612733042,0.5560302734375,-0.537750244140625,0.0338287353515625,1757626.593713042,2.699235916137695,1.963322281837463,-1.394160270690918,1757626.601099042,131.9214172363281,87.82423400878906,-480.6415405273438,0
2023-02-13T13:26:01.118Z,384,1757626.632753042,0.6286163330078125,-0.5251007080078125,0.1673126220703125,1757626.613733042,1.703213453292847,2.240259408950806,-1.220794916152954,1757626.620722042,133.6900482177734,86.98956298828125,-480.0370788574219,0
2023-02-13T13:26:01.132Z,385,1757626.652742042,0.6667327880859375,-0.498260498046875,0.2394256591796875,1757626.633753042,0.8258627653121948,2.385519981384277,-1.236876130104065,1757626.640314042,135.6867065429688,86.2742919921875,-480.0453491210938,0
2023-02-13T13:26:01.154Z,386,1757626.672761042,0.7091217041015625,-0.4847869873046875,0.31256103515625,1757626.653742042,0.4477308988571167,2.208248138427734,-1.126168012619019,1757626.659906042,137.6738128662109,86.03202819824219,-479.922119140625,0
2023-02-13T13:26:01.172Z,387,1757626.692781042,0.8054656982421875,-0.53106689453125,0.3837432861328125,1757626.673761042,0.5884550213813782,1.851586699485779,-0.853868842124939,1757626.679498042,139.2779541015625,85.37911987304688,-479.414306640625,0
2023-02-13T13:26:01.195Z,388,1757626.712800042,0.8291473388671875,-0.592315673828125,0.4115142822265625,1757626.693781042,0.8766399025917053,1.031916856765747,-0.6384201645851135,1757626.699091042,140.5528869628906,84.42776489257812,-479.469970703125,0
2023-02-13T13:26:01.212Z,389,1757626.732789042,0.842864990234375,-0.6268310546875,0.4142303466796875,1757626.713800042,0.7308222651481628,0.2836905717849731,-0.4480544924736023,1757626.718683042,141.3009033203125,84.08157348632812,-479.2137451171875,0
2023-02-13T13:26:01.234Z,390,1757626.752809042,0.8246612548828125,-0.6185455322265625,0.3890380859375,1757626.733789042,0.2539542317390442,-0.1659697890281677,-0.3157742023468018,1757626.738275042,141.3080139160156,84.10356140136719,-479.1826171875,0
2023-02-13T13:26:01.252Z,391,1757626.772828042,0.8116607666015625,-0.6132049560546875,0.3274078369140625,1757626.753809042,-0.4276751577854156,-0.4259747564792633,-0.1790323406457901,1757626.757868042,141.17041015625,84.55857849121094,-478.721435546875,0
2023-02-13T13:26:01.274Z,392,1757626.792817042,0.7847900390625,-0.620819091796875,0.2266082763671875,1757626.773828042,-0.9228668212890625,-0.8286340236663818,0.001421062741428614,1757626.777460042,140.6017608642578,85.35295104980469,-478.93798828125,0
2023-02-13T13:26:01.292Z,393,1757626.812837042,0.748748779296875,-0.621734619140625,0.1229400634765625,1757626.793817042,-1.271129488945007,-1.28875744342804,0.2406677305698395,1757626.797052042,139.8200531005859,86.39141845703125,-479.9313354492188,0
2023-02-13T13:26:01.314Z,394,1757626.832856042,0.6890411376953125,-0.568023681640625,0.0432891845703125,1757626.813837042,-1.535432457923889,-1.56656801700592,0.3908191621303558,1757626.816644042,138.9339904785156,87.5897216796875,-480.5366516113281,0
2023-02-13T13:26:01.332Z,395,1757626.8528705,0.6418914794921875,-0.482208251953125,-0.0012969970703125,1757626.833856042,-1.614813804626465,-1.622840881347656,0.4065728187561035,1757626.836206042,137.7901611328125,88.73141479492188,-480.6031494140625,0
2023-02-13T13:26:01.355Z,396,1757626.8728595,0.639801025390625,-0.4177093505859375,-0.0109405517578125,1757626.8538705,-1.346039414405823,-1.552095651626587,0.3085903227329254,1757626.8557925,136.6042938232422,89.88774108886719,-481.177734375,0
2023-02-13T13:26:01.372Z,397,1757626.8928785,0.65582275390625,-0.481201171875,-0.096466064453125,1757626.8738595,-0.8053644299507141,-1.830611348152161,0.3216299712657928,1757626.8753855,135.4483795166016,90.50833129882812,-481.4745483398438,0
2023-02-13T13:26:01.394Z,398,1757626.9128985,0.6177825927734375,-0.5414276123046875,-0.2088775634765625,1757626.8938785,-0.7162643671035767,-2.598671197891235,0.647948145866394,1757626.8949775,133.7910614013672,90.83311462402344,-482.8152465820312,0
2023-02-13T13:26:01.412Z,399,1757626.9329175,0.4846954345703125,-0.503814697265625,-0.23138427734375,1757626.9138985,-1.038699388504028,-2.957933664321899,0.9171154499053955,1757626.9145695,131.3850860595703,91.62869262695312,-483.2402954101562,0
2023-02-13T13:26:01.434Z,400,1757626.9529065,0.4053497314453125,-0.4181976318359375,-0.2200775146484375,1757626.9339175,-1.256010413169861,-2.525649547576904,0.8052962422370911,1757626.9341315,129.5401916503906,92.23960876464844,-483.2364501953125,0
2023-02-13T13:26:01.452Z,401,1757626.9729265,0.4221343994140625,-0.373443603515625,-0.205535888671875,1757626.9539065,-1.165889024734497,-1.919208645820618,0.5327299237251282,1757626.9537235,127.8712921142578,93.13243103027344,-484.2981567382812,0
2023-02-13T13:26:01.472Z,402,1757626.9929455,0.4535980224609375,-0.399078369140625,-0.236114501953125,1757626.9739265,-0.8306047916412354,-2.051614046096802,0.6445246338844299,1757626.9733165,126.238525390625,93.53462219238281,-484.6558837890625,0
2023-02-13T13:26:01.492Z,403,1757627.0129355,0.359405517578125,-0.4405670166015625,-0.3116455078125,1757626.9939455,-0.7046473622322083,-2.762670516967773,0.8657481074333191,1757626.9929085,124.2470397949219,94.0347900390625,-485.054931640625,0
2023-02-13T13:26:01.515Z,404,1757627.0329545,0.211517333984375,-0.4735107421875,-0.4237823486328125,1757627.0139355,-0.9459473490715027,-3.270490646362305,1.008064270019531,1757627.0125005,121.9575042724609,94.48393249511719,-485.0191955566406,0
2023-02-13T13:26:01.532Z,405,1757627.0529745,0.0645294189453125,-0.4836273193359375,-0.5750274658203125,1757627.0339545,-1.415317296981812,-3.066927433013916,1.4025639295578,1757627.0320925,119.2177429199219,95.33836364746094,-484.8796997070312,0
2023-02-13T13:26:01.559Z,406,1757627.0729935,-0.1206207275390625,-0.4959716796875,-0.709564208984375,1757627.0539745,-2.128536224365234,-2.565258979797363,1.591545224189758,1757627.0516855,116.4969635009766,96.59735107421875,-485.701171875,0
2023-02-13T13:26:01.572Z,407,1757627.0929825,-0.1007843017578125,-0.471923828125,-0.80950927734375,1757627.0739935,-2.637208223342896,-2.223097324371338,1.013174295425415,1757627.0712775,114.7459564208984,98.23585510253906,-485.6488647460938,0
2023-02-13T13:26:01.598Z,408,1757627.1130025,0.07098388671875,-0.3836669921875,-0.7953643798828125,1757627.1140025,-1.77175760269165,-2.330616474151611,1.027290940284729,1757627.0908695,113.0091857910156,100.1649475097656,-485.220458984375,0
2023-02-13T13:26:01.612Z,409,1757627.1330215,0.0621795654296875,-0.32073974609375,-0.7154998779296875,1757627.1140025,-1.77175760269165,-2.330616474151611,1.027290940284729,1757627.1104625,111.1169586181641,101.6455383300781,-485.9857788085938,0
2023-02-13T13:26:01.633Z,410,1757627.1530105,-0.2466583251953125,-0.3637847900390625,-0.8032379150390625,1757627.1340215,-1.064695358276367,-3.047109365463257,1.274623513221741,1757627.1300545,109.1970672607422,102.8199615478516,-485.5305480957031,0
2023-02-13T13:26:01.652Z,411,1757627.1730305,-0.393798828125,-0.418701171875,-0.9662628173828125,1757627.1540105,-1.281036376953125,-3.271359443664551,0.4997019469738007,1757627.1496165,106.6838531494141,103.6906127929688,-484.0763549804688,0
2023-02-13T13:26:01.677Z,412,1757627.1930495,-0.3020782470703125,-0.3660736083984375,-1.024703979492188,1757627.1740305,-2.116793870925903,-2.643935203552246,0.3258502781391144,1757627.1692085,104.4606475830078,104.8622741699219,-483.8770141601562,0
2023-02-13T13:26:01.692Z,413,1757627.2130695,-0.166046142578125,-0.2615966796875,-0.9332427978515625,1757627.1940495,-2.384784460067749,-1.843195080757141,0.9281001687049866,1757627.1888005,103.0249328613281,106.414794921875,-482.6309509277344,0
2023-02-13T13:26:01.719Z,414,1757627.2330585,-0.22149658203125,-0.201385498046875,-0.8876190185546875,1757627.2140695,-1.811696529388428,-1.588509559631348,1.515545010566711,1757627.2083935,101.2314453125,108.1935424804688,-482.5150146484375,0
2023-02-13T13:26:01.732Z,415,1757627.2530775,-0.45098876953125,-0.183013916015625,-0.8809814453125,1757627.2340585,-1.278018832206726,-2.031520366668701,1.060707211494446,1757627.2279545,100.1807708740234,109.5637054443359,-481.8447265625,0
2023-02-13T13:26:01.758Z,416,1757627.2730975,-0.4741363525390625,-0.225341796875,-0.973541259765625,1757627.2540775,-1.062469124794006,-2.613391399383545,0.1519645005464554,1757627.2475475,98.90928649902344,110.4528198242188,-480.6663208007812,0
2023-02-13T13:26:01.772Z,417,1757627.2931165,-0.38348388671875,-0.21923828125,-0.94793701171875,1757627.2740975,-1.134319186210632,-2.599021673202515,0.2929032444953918,1757627.2671395,97.09358215332031,111.0908813476562,-479.6938171386719,0
2023-02-13T13:26:01.794Z,418,1757627.3131055,-0.386016845703125,-0.1657867431640625,-0.8374786376953125,1757627.2941165,-1.253530740737915,-2.075624227523804,1.091098427772522,1757627.2867015,95.67083740234375,112.0175628662109,-478.8781127929688,0
2023-02-13T13:26:01.812Z,419,1757627.3331255,-0.60699462890625,-0.11663818359375,-0.900787353515625,1757627.3141055,-1.505231142044067,-1.790138244628906,1.549110412597656,1757627.3062935,94.45512390136719,113.3987274169922,-478.2268371582031,0
2023-02-13T13:26:01.834Z,420,1757627.3531445,-0.7089691162109375,-0.065582275390625,-1.029296875,1757627.3341255,-1.951887965202332,-1.61696994304657,0.8636540770530701,1757627.3258855,93.81272888183594,115.0258636474609,-476.3753662109375,0
2023-02-13T13:26:01.852Z,421,1757627.3731335,-0.59625244140625,-0.031005859375,-1.02471923828125,1757627.3541445,-2.010488748550415,-1.725873231887817,0.4554902911186218,1757627.3454475,92.57270812988281,116.4940795898438,-475.38330078125,0
2023-02-13T13:26:01.873Z,422,1757627.3931535,-0.495941162109375,-0.006072998046875,-0.9127044677734375,1757627.3741335,-1.470362067222595,-1.795923948287964,0.7272211313247681,1757627.3650395,91.78767395019531,117.4811248779297,-474.7901000976562,0
2023-02-13T13:26:01.892Z,423,1757627.4131735,-0.5298919677734375,0.0237884521484375,-0.821319580078125,1757627.4141735,-0.903864860534668,-1.940281629562378,1.483619332313538,1757627.4041935,89.98558044433594,119.9736480712891,-472.341064453125,0
2023-02-13T13:26:01.915Z,424,1757627.4331925,-0.737579345703125,0.05596923828125,-0.85272216796875,1757627.4141735,-0.903864860534668,-1.940281629562378,1.483619332313538,1757627.4237865,89.29310607910156,121.0786285400391,-470.744873046875,0
2023-02-13T13:26:01.932Z,425,1757627.4531815,-0.829986572265625,0.074371337890625,-0.9283294677734375,1757627.4341925,-1.361095309257507,-2.074275732040405,0.7196356654167175,1757627.4433475,88.74380493164062,122.0027770996094,-469.3284606933594,0
2023-02-13T13:26:01.952Z,426,1757627.4732015,-0.7584686279296875,0.0866241455078125,-0.904449462890625,1757627.4541815,-1.69089150428772,-2.042433500289917,0.3957340121269226,1757627.4629405,88.14839172363281,122.7483062744141,-467.9652709960938,0
2023-02-13T13:26:01.972Z,427,1757627.4932205,-0.653045654296875,0.1244964599609375,-0.8062591552734375,1757627.4742015,-1.52329432964325,-1.83605432510376,0.7569417357444763,1757627.4825325,87.63713073730469,123.9608612060547,-466.5361938476562,0
2023-02-13T13:26:01.994Z,428,1757627.5132405,-0.5807037353515625,0.1731109619140625,-0.6626739501953125,1757627.4942205,-1.035676121711731,-1.75992739200592,1.256165146827698,1757627.5020945,87.40065002441406,125.0776824951172,-465.3832092285156,0
2023-02-13T13:26:02.012Z,429,1757627.5332295,-0.748016357421875,0.2350921630859375,-0.549896240234375,1757627.5142405,-0.7283362150192261,-1.991701245307922,1.552129983901978,1757627.5216865,87.1475830078125,126.6097869873047,-463.484619140625,0
2023-02-13T13:26:02.033Z,430,1757627.5532485,-0.871795654296875,0.197357177734375,-0.58123779296875,1757627.5342295,-0.6243869066238403,-2.485882997512817,1.127708315849304,1757627.5412485,87.08747863769531,127.2881469726562,-461.7870178222656,0
2023-02-13T13:26:02.052Z,431,1757627.5732685,-0.9884796142578125,0.2426910400390625,-0.6292572021484375,1757627.5542485,-0.974311351776123,-2.853672504425049,0.7836788296699524,1757627.5608405,86.70358276367188,128.1223297119141,-459.8115844726562,0
2023-02-13T13:26:02.074Z,432,1757627.5932575,-0.949005126953125,0.288818359375,-0.6131439208984375,1757627.5742685,-1.462353229522705,-2.483952760696411,1.140373349189758,1757627.5804325,86.44065856933594,129.2682647705078,-457.7435913085938,0
2023-02-13T13:26:02.092Z,433,1757627.6132765,-0.9242095947265625,0.3832550048828125,-0.554351806640625,1757627.5942575,-1.568301439285278,-2.036833763122559,1.482977271080017,1757627.6000255,86.82377624511719,130.4089202880859,-455.9284973144531,0
2023-02-13T13:26:02.115Z,434,1757627.6332965,-0.9380340576171875,0.4215545654296875,-0.463775634765625,1757627.6342965,-1.416376352310181,-2.099562883377075,1.067407250404358,1757627.6195865,87.43356323242188,131.6552581787109,-454.1590576171875,0
2023-02-13T13:26:02.132Z,435,1757627.6533155,-0.978271484375,0.43280029296875,-0.4064788818359375,1757627.6342965,-1.416376352310181,-2.099562883377075,1.067407250404358,1757627.6391795,87.45880126953125,132.5688629150391,-452.4767456054688,0
2023-02-13T13:26:02.152Z,436,1757627.6733045,-1.032699584960938,0.4575042724609375,-0.3561248779296875,1757627.6543155,-1.171832919120789,-2.493545293807983,0.8622175455093384,1757627.6587715,87.93133544921875,133.3894653320312,-450.24609375,0
2023-02-13T13:26:02.172Z,437,1757627.6933245,-1.044479370117188,0.47747802734375,-0.3431243896484375,1757627.6743045,-0.8469334244728088,-2.616523504257202,0.9631282091140747,1757627.6783635,88.25485229492188,134.0322265625,-448.416015625,0
2023-02-13T13:26:02.193Z,438,1757627.7133435,-1.046554565429688,0.53216552734375,-0.3674468994140625,1757627.6943245,-0.7763372659683228,-2.267848253250122,1.050001621246338,1757627.6979255,88.94874572753906,134.5847473144531,-446.7509155273438,0
2023-02-13T13:26:02.212Z,439,1757627.7333635,-1.032196044921875,0.55120849609375,-0.374908447265625,1757627.7143435,-1.274864315986633,-1.725299119949341,0.9958184957504272,1757627.7174875,89.76271057128906,135.3498382568359,-445.1076049804688,0
2023-02-13T13:26:02.233Z,440,1757627.7533525,-1.026535034179688,0.5276947021484375,-0.3551177978515625,1757627.7343635,-1.836156606674194,-1.371872782707214,0.9552755951881409,1757627.7370795,90.26028442382812,135.8370819091797,-443.6780395507812,0
2023-02-13T13:26:02.252Z,441,1757627.7733725,-1.09454345703125,0.558258056640625,-0.326019287109375,1757627.7543525,-2.016546726226807,-1.203198075294495,0.9877243638038635,1757627.7566415,91.04692077636719,136.4106597900391,-442.0059204101562,0
2023-02-13T13:26:02.277Z,442,1757627.7933915,-1.028305053710938,0.58380126953125,-0.3223419189453125,1757627.7743725,-2.124777555465698,-0.9136176705360413,0.7233020067214966,1757627.7762035,91.67961120605469,136.5462493896484,-440.364013671875,0
2023-02-13T13:26:02.292Z,443,1757627.8133805,-0.8851165771484375,0.6353759765625,-0.2595062255859375,1757627.7943915,-2.095740795135498,-0.6298988461494446,0.3484525084495544,1757627.7957955,92.00328063964844,136.3981628417969,-439.2794189453125,0
2023-02-13T13:26:02.313Z,444,1757627.8334005,-0.8142547607421875,0.63031005859375,-0.131072998046875,1757627.8143805,-1.463445067405701,-0.878675103187561,0.3491297662258148,1757627.8153875,92.47212219238281,136.0334777832031,-437.7131958007812,0
2023-02-13T13:26:02.332Z,445,1757627.853417167,-0.8713226318359375,0.60577392578125,-0.1545257568359375,1757627.8344005,-0.7176670432090759,-1.781099796295166,0.6075645089149475,1757627.8349495,93.422607421875,136.2989044189453,-437.0209655761719,0
2023-02-13T13:26:02.358Z,446,1757627.873437167,-0.9979095458984375,0.55859375,-0.2542877197265625,1757627.854417167,-0.7836460471153259,-2.211045742034912,0.6663463115692139,1757627.854539167,94.36312866210938,136.7730560302734,-435.5482177734375,0
2023-02-13T13:26:02.372Z,447,1757627.893426167,-1.09246826171875,0.5528411865234375,-0.341339111328125,1757627.874437167,-1.457428693771362,-1.765232920646667,0.5810149312019348,1757627.874101167,95.27508544921875,136.752685546875,-434.0719604492188,0
2023-02-13T13:26:02.396Z,448,1757627.913445167,-1.05828857421875,0.60198974609375,-0.339813232421875,1757627.894426167,-1.875629663467407,-0.9036989808082581,0.4391731023788452,1757627.893693167,95.87590026855469,136.6132507324219,-432.7391967773438,0
2023-02-13T13:26:02.412Z,449,1757627.933465167,-0.9096527099609375,0.6324310302734375,-0.319061279296875,1757627.914445167,-1.391877412796021,-0.5107759237289429,0.2715668082237244,1757627.913255167,96.75401306152344,136.1256561279297,-431.6553649902344,0
2023-02-13T13:26:02.433Z,450,1757627.953484167,-0.87890625,0.6291046142578125,-0.30780029296875,1757627.934465167,-0.3563368022441864,-0.9339767098426819,0.1479244828224182,1757627.932847167,96.75042724609375,135.7937774658203,-430.9450378417969,0
2023-02-13T13:26:02.452Z,451,1757627.973473167,-0.9434051513671875,0.5880584716796875,-0.316986083984375,1757627.954484167,0.3930032253265381,-1.318756341934204,0.09762082993984222,1757627.952409167,97.42681884765625,135.9795227050781,-430.75,0
2023-02-13T13:26:02.477Z,452,1757627.993493167,-1.0218505859375,0.55450439453125,-0.3226776123046875,1757627.974473167,0.5648037195205688,-1.13236141204834,0.07846125215291977,1757627.972001167,98.22346496582031,136.4961700439453,-430.2509765625,0
2023-02-13T13:26:02.493Z,453,1757628.013512167,-1.029586791992188,0.5535888671875,-0.30389404296875,1757627.994493167,0.3341436088085175,-0.5501776337623596,0.04047844931483269,1757627.991563167,98.416748046875,136.6406860351562,-429.9179382324219,0
2023-02-13T13:26:02.515Z,454,1757628.033501167,-0.9807281494140625,0.568206787109375,-0.2927703857421875,1757628.014512167,0.1747648864984512,0.01174720376729965,-0.09442903101444244,1757628.011155167,98.56900024414062,136.9226989746094,-430.0003967285156,0
2023-02-13T13:26:02.532Z,455,1757628.053521167,-0.954315185546875,0.6015625,-0.31182861328125,1757628.034501167,0.2729260623455048,0.2485245913267136,-0.2028138339519501,1757628.030748167,98.36430358886719,136.7481689453125,-430.080078125,0
2023-02-13T13:26:02.552Z,456,1757628.073540167,-0.9513397216796875,0.6056365966796875,-0.3418121337890625,1757628.054521167,0.4923300743103027,0.3503021001815796,-0.1955327540636063,1757628.050309167,98.14439392089844,136.8881072998047,-430.4953918457031,0
2023-02-13T13:26:02.572Z,457,1757628.093560167,-0.983154296875,0.6132659912109375,-0.373809814453125,1757628.074540167,0.7161756753921509,0.4658406674861908,-0.1783215403556824,1757628.069902167,97.77853393554688,136.9186401367188,-430.7962646484375,0
2023-02-13T13:26:02.592Z,458,1757628.113549167,-1.013870239257812,0.6202392578125,-0.3912200927734375,1757628.094560167,0.857074499130249,0.7094898223876953,-0.2235981971025467,1757628.089494167,97.37956237792969,137.0810852050781,-431.4263305664062,0
2023-02-13T13:26:02.613Z,459,1757628.133568167,-1.016754150390625,0.61602783203125,-0.3848876953125,1757628.114549167,1.023086071014404,1.018630862236023,-0.363431990146637,1757628.109086167,96.69708251953125,137.3957977294922,-432.2782287597656,0
2023-02-13T13:26:02.637Z,460,1757628.153588167,-1.017898559570312,0.614776611328125,-0.390625,1757628.134568167,1.344359159469604,1.218876361846924,-0.5488168001174927,1757628.128679167,96.500732421875,137.2843933105469,-433.3231201171875,0
2023-02-13T13:26:02.652Z,461,1757628.173608167,-1.063140869140625,0.61297607421875,-0.364288330078125,1757628.154588167,1.709675073623657,1.263214826583862,-0.6640485525131226,1757628.148271167,95.26786804199219,137.4083862304688,-434.4694519042969,0
2023-02-13T13:26:02.676Z,462,1757628.193597167,-1.091156005859375,0.6013946533203125,-0.3863677978515625,1757628.174608167,1.983566522598267,1.405143976211548,-0.7068149447441101,1757628.167833167,94.71931457519531,137.7132720947266,-436.071044921875,0
2023-02-13T13:26:02.693Z,463,1757628.213616167,-1.16302490234375,0.6122589111328125,-0.424530029296875,1757628.194597167,1.98572051525116,1.636742830276489,-0.7356716394424438,1757628.187425167,93.70352172851562,137.5747985839844,-437.6883239746094,0
2023-02-13T13:26:02.714Z,464,1757628.233636167,-1.182998657226562,0.604583740234375,-0.4038543701171875,1757628.214616167,1.779839515686035,1.986421227455139,-0.8682640194892883,1757628.207017167,92.9476318359375,137.8172302246094,-439.828857421875,0
2023-02-13T13:26:02.732Z,465,1757628.253625167,-1.194808959960938,0.5954437255859375,-0.40771484375,1757628.234636167,1.736676096916199,2.518130302429199,-0.9685336351394653,1757628.226579167,91.80963134765625,137.2502593994141,-441.4745178222656,0
2023-02-13T13:26:02.753Z,466,1757628.273644167,-1.182357788085938,0.599578857421875,-0.4559478759765625,1757628.254625167,1.780270457267761,2.799938917160034,-0.9849751591682434,1757628.246171167,90.75698852539062,136.7879333496094,-443.562744140625,0
2023-02-13T13:26:02.772Z,467,1757628.293664167,-1.151596069335938,0.5914154052734375,-0.498809814453125,1757628.274644167,1.70767879486084,2.747383594512939,-1.001509189605713,1757628.265764167,90.16900634765625,136.3190155029297,-446.3140869140625,0
2023-02-13T13:26:02.793Z,468,1757628.313683167,-1.145919799804688,0.581451416015625,-0.55865478515625,1757628.294664167,1.737574934959412,2.725313901901245,-0.9697786569595337,1757628.304887167,88.80601501464844,135.2677154541016,-450.9896850585938,0
2023-02-13T13:26:02.813Z,469,1757628.333672167,-1.12603759765625,0.55682373046875,-0.5970306396484375,1757628.314683167,1.914731621742249,2.769063234329224,-0.9252159595489502,1757628.324449167,88.65182495117188,134.5491027832031,-453.609619140625,0
2023-02-13T13:26:02.833Z,470,1757628.353692167,-1.099594116210938,0.5081939697265625,-0.6316375732421875,1757628.334672167,2.281287431716919,2.77869176864624,-0.9824219942092896,1757628.344041167,88.26091003417969,133.3955230712891,-456.0962524414062,0
2023-02-13T13:26:02.852Z,471,1757628.373711167,-1.079452514648438,0.4813079833984375,-0.6633758544921875,1757628.354692167,2.441686630249023,2.688009977340698,-1.069420576095581,1757628.363633167,87.9920654296875,132.5788879394531,-458.604736328125,0
2023-02-13T13:26:02.873Z,472,1757628.393731167,-1.027938842773438,0.4097900390625,-0.65850830078125,1757628.374711167,2.500360488891602,2.741215467453003,-1.037075161933899,1757628.383195167,88.25254821777344,131.4280395507812,-461.299072265625,0
2023-02-13T13:26:02.893Z,473,1757628.413720167,-0.980743408203125,0.3422393798828125,-0.674285888671875,1757628.394731167,2.508239507675171,2.82188868522644,-1.097729444503784,1757628.402787167,88.40213012695312,130.0507965087891,-463.7338562011719,0
2023-02-13T13:26:02.913Z,474,1757628.433739167,-0.9471893310546875,0.285614013671875,-0.7152862548828125,1757628.414720167,2.38712477684021,2.795383453369141,-1.106828689575195,1757628.422349167,88.81977844238281,128.6587066650391,-466.1387939453125,0
2023-02-13T13:26:02.932Z,475,1757628.453759167,-0.9294281005859375,0.26318359375,-0.7762451171875,1757628.434739167,2.147171497344971,2.823457956314087,-1.038334846496582,1757628.441942167,89.56312561035156,126.9748382568359,-468.6310119628906,0
2023-02-13T13:26:02.953Z,476,1757628.473748167,-0.8700408935546875,0.223419189453125,-0.8041534423828125,1757628.454759167,1.968522667884827,3.016355037689209,-1.011291742324829,1757628.461503167,90.53062438964844,125.7898559570312,-470.5855712890625,0
2023-02-13T13:26:02.972Z,477,1757628.493767167,-0.776275634765625,0.2066802978515625,-0.8135528564453125,1757628.474748167,2.050589561462402,2.951049566268921,-1.054242372512817,1757628.481096167,91.72088623046875,124.2235260009766,-472.8213500976562,0
