loggingTime(txt),loggingSample(N),accelerometerTimestamp_sinceReboot(s),accelerometerAccelerationX(G),accelerometerAccelerationY(G),accelerometerAccelerationZ(G),gyroTimestamp_sinceReboot(s),gyroRotationX(rad/s),gyroRotationY(rad/s),gyroRotationZ(rad/s),magnetometerTimestamp_sinceReboot(s),magnetometerX(µT),magnetometerY(µT),magnetometerZ(µT),label(N)
2023-02-18T22:07:41.678Z,1,2018947.083598625,-0.177886962890625,0.2234039306640625,-1.056838989257812,2018947.064609625,-0.2796601355075836,0.2382221519947052,0.1016789600253105,2018947.059817625,133.7444152832031,88.423583984375,-496.8623657226562,3
2023-02-18T22:07:41.679Z,2,2018947.103617625,-0.226959228515625,0.2159271240234375,-1.055145263671875,2018947.084598625,-0.06598354130983353,-0.07618105411529541,0.1104210466146469,2018947.079501625,133.8336029052734,88.70703125,-497.0018310546875,3
2023-02-18T22:07:41.695Z,3,2018947.123637625,-0.2686920166015625,0.1957855224609375,-1.044845581054688,2018947.104617625,-0.011027617380023,-0.1109374389052391,0.1449188441038132,2018947.099215625,133.4962615966797,88.67630004882812,-496.9645690917969,3
2023-02-18T22:07:41.715Z,4,2018947.143626625,-0.260894775390625,0.191314697265625,-1.037887573242188,2018947.124637625,0.02850594371557236,-0.07664364576339722,0.2492974400520325,2018947.118930625,133.3137664794922,88.60554504394531,-497.0139770507812,3
2023-02-18T22:07:41.736Z,5,2018947.163645625,-0.26385498046875,0.1957244873046875,-1.0382080078125,2018947.144626625,0.06340746581554413,-0.03087109699845314,0.3188506960868835,2018947.138644625,133.2908325195312,88.82833862304688,-497.3673706054688,3
2023-02-18T22:07:41.755Z,6,2018947.183665625,-0.2711334228515625,0.1979217529296875,-1.044570922851562,2018947.164645625,0.1256647109985352,-0.07583989948034286,0.3822493553161621,2018947.158328625,132.9918212890625,88.49636840820312,-497.0325317382812,3
2023-02-18T22:07:41.783Z,7,2018947.203654625,-0.2995147705078125,0.222412109375,-1.01605224609375,2018947.184665625,0.1300964802503586,-0.1025516763329506,0.4507714509963989,2018947.178042625,133.1041412353516,88.52503967285156,-496.9209594726562,3
2023-02-18T22:07:41.795Z,8,2018947.223673625,-0.3000946044921875,0.26458740234375,-0.9721527099609375,2018947.204654625,0.2053837776184082,-0.123432457447052,0.5316412448883057,2018947.197757625,133.1517486572266,88.48194885253906,-497.1806640625,3
2023-02-18T22:07:41.819Z,9,2018947.243662625,-0.324371337890625,0.2330322265625,-0.9426422119140625,2018947.224673625,0.3928388953208923,-0.2347975969314575,0.5488388538360596,2018947.217471625,132.8208465576172,88.60334777832031,-497.1866455078125,3
2023-02-18T22:07:41.835Z,10,2018947.263682625,-0.3530120849609375,0.2393798828125,-0.93182373046875,2018947.264682625,0.2934079170227051,-0.04588253796100616,0.4266559779644012,2018947.237185625,132.6556243896484,88.16830444335938,-496.8694458007812,3
2023-02-18T22:07:41.859Z,11,2018947.283701625,-0.3670654296875,0.2389984130859375,-0.9354705810546875,2018947.264682625,0.2934079170227051,-0.04588253796100616,0.4266559779644012,2018947.256900625,132.0291748046875,87.89669799804688,-496.8052368164062,3
2023-02-18T22:07:41.875Z,12,2018947.303690625,-0.334381103515625,0.236419677734375,-0.9292144775390625,2018947.284701625,0.1632935851812363,0.1280591636896133,0.3045356571674347,2018947.276614625,132.3355255126953,87.94743347167969,-496.7933349609375,3
2023-02-18T22:07:41.902Z,13,2018947.323710625,-0.3250274658203125,0.2158966064453125,-0.8975830078125,2018947.304690625,0.1113470271229744,0.1832497119903564,0.2114991992712021,2018947.296359625,132.4538879394531,87.85041809082031,-496.9989013671875,3
2023-02-18T22:07:41.915Z,14,2018947.343729625,-0.322357177734375,0.1968841552734375,-0.869659423828125,2018947.324710625,0.1239664182066917,0.1749475747346878,0.2128781825304031,2018947.316073625,132.4865570068359,88.0546875,-496.8876953125,3
2023-02-18T22:07:41.939Z,15,2018947.363718625,-0.3298797607421875,0.2103271484375,-0.8656768798828125,2018947.344729625,0.1140738427639008,0.1896120011806488,0.2368487566709518,2018947.335788625,132.7945404052734,88.07391357421875,-497.0455322265625,3
2023-02-18T22:07:41.955Z,16,2018947.383738625,-0.3674163818359375,0.22271728515625,-0.86834716796875,2018947.364718625,0.1549725383520126,0.09868689626455307,0.2335818558931351,2018947.355502625,132.7439880371094,87.75846862792969,-496.97607421875,3
2023-02-18T22:07:41.984Z,17,2018947.403757625,-0.3917999267578125,0.2441864013671875,-0.8726806640625,2018947.384738625,0.1436533033847809,0.06738090515136719,0.2040910869836807,2018947.375216625,132.8015594482422,87.56021118164062,-497.0316772460938,3
2023-02-18T22:07:41.995Z,18,2018947.423746625,-0.3798828125,0.273284912109375,-0.8708953857421875,2018947.404757625,0.1231416389346123,0.0547921434044838,0.1577938944101334,2018947.414615625,132.8740234375,87.38160705566406,-497.13232421875,3
2023-02-18T22:07:42.025Z,19,2018947.443766625,-0.3699798583984375,0.289215087890625,-0.856292724609375,2018947.424746625,0.1448416113853455,-0.03814418986439705,0.09395179152488708,2018947.434329625,132.5050659179688,87.28153991699219,-496.8524169921875,3
2023-02-18T22:07:42.036Z,20,2018947.463786625,-0.3534393310546875,0.29022216796875,-0.832794189453125,2018947.444766625,0.1711318045854568,-0.1222508102655411,0.02290930971503258,2018947.454043625,132.4015197753906,87.19236755371094,-496.692626953125,3
2023-02-18T22:07:42.060Z,21,2018947.483775625,-0.3366546630859375,0.279052734375,-0.8076629638671875,2018947.464786625,0.1470222026109695,-0.146973729133606,-0.04458104819059372,2018947.473758625,132.5202789306641,86.77166748046875,-496.7312622070312,3
2023-02-18T22:07:42.075Z,22,2018947.503794625,-0.2992401123046875,0.2567291259765625,-0.79119873046875,2018947.484775625,0.1005425825715065,-0.1310693323612213,-0.08986756950616837,2018947.493472625,132.3873291015625,86.79301452636719,-496.7329406738281,3
2023-02-18T22:07:42.104Z,23,2018947.523783625,-0.2658233642578125,0.2511749267578125,-0.785308837890625,2018947.504794625,0.0601581446826458,-0.1295731663703918,-0.09213924407958984,2018947.513217625,132.2984619140625,86.62286376953125,-496.6610107421875,3
2023-02-18T22:07:42.115Z,24,2018947.543803625,-0.2381134033203125,0.2476806640625,-0.784393310546875,2018947.524783625,0.05450744926929474,-0.1891885697841644,-0.05024372786283493,2018947.532931625,132.2992248535156,86.51922607421875,-496.8341674804688,3
2023-02-18T22:07:42.144Z,25,2018947.563822625,-0.2385406494140625,0.2283477783203125,-0.7809295654296875,2018947.544803625,0.07766523212194443,-0.3089799582958221,0.0124401580542326,2018947.552646625,131.7883911132812,86.44712829589844,-496.6466369628906,3
2023-02-18T22:07:42.155Z,26,2018947.583811625,-0.2780303955078125,0.2159271240234375,-0.7844085693359375,2018947.564822625,0.02787930145859718,-0.3576303124427795,0.07061664760112762,2018947.572360625,131.8931274414062,86.244140625,-496.5997924804688,3
2023-02-18T22:07:42.184Z,27,2018947.603831625,-0.28973388671875,0.225433349609375,-0.8023834228515625,2018947.584811625,-0.08337212353944778,-0.3034403026103973,0.1357280015945435,2018947.592074625,131.6443939208984,86.52139282226562,-496.5526123046875,3
2023-02-18T22:07:42.195Z,28,2018947.623850625,-0.298309326171875,0.2459869384765625,-0.8210906982421875,2018947.604831625,-0.175193652510643,-0.2881164848804474,0.1777399033308029,2018947.611819625,131.218994140625,86.65469360351562,-496.6908569335938,3
2023-02-18T22:07:42.224Z,29,2018947.643839625,-0.3036346435546875,0.2574005126953125,-0.8378448486328125,2018947.624850625,-0.2442022860050201,-0.3113368451595306,0.1967295706272125,2018947.631534625,131.1474456787109,86.63607788085938,-496.297119140625,3
2023-02-18T22:07:42.235Z,30,2018947.663859625,-0.29937744140625,0.2926788330078125,-0.8489227294921875,2018947.644839625,-0.3148308992385864,-0.3157558143138885,0.2224615663290024,2018947.651248625,130.5108337402344,87.09169006347656,-496.3852844238281,3
2023-02-18T22:07:42.260Z,31,2018947.683878625,-0.2899017333984375,0.3351593017578125,-0.8497314453125,2018947.664859625,-0.3320122957229614,-0.3294881582260132,0.245354637503624,2018947.670962625,130.4616851806641,87.37472534179688,-496.2585144042969,3
2023-02-18T22:07:42.275Z,32,2018947.703867625,-0.2992401123046875,0.3339080810546875,-0.8423004150390625,2018947.684878625,-0.2722264528274536,-0.4064492583274841,0.265919029712677,2018947.690677625,130.1414337158203,87.55592346191406,-496.1151428222656,3
2023-02-18T22:07:42.303Z,33,2018947.723887625,-0.3061065673828125,0.3448028564453125,-0.8304595947265625,2018947.704867625,-0.2430576533079147,-0.4144131541252136,0.315191775560379,2018947.710422625,129.6060028076172,87.89076232910156,-496.0362243652344,3
2023-02-18T22:07:42.315Z,34,2018947.743906625,-0.2845611572265625,0.370361328125,-0.812652587890625,2018947.724887625,-0.1874708235263824,-0.3949451744556427,0.3764820396900177,2018947.730136625,129.3535308837891,88.05340576171875,-495.9121704101562,3
2023-02-18T22:07:42.344Z,35,2018947.763895625,-0.2750244140625,0.40472412109375,-0.77752685546875,2018947.744906625,-0.02265790849924088,-0.4873201251029968,0.4432807564735413,2018947.749850625,128.9046478271484,88.33525085449219,-495.7885131835938,3
2023-02-18T22:07:42.355Z,36,2018947.783915625,-0.254730224609375,0.437469482421875,-0.7359771728515625,2018947.764895625,0.2062772661447525,-0.626801609992981,0.5479592680931091,2018947.769565625,128.5422210693359,88.06930541992188,-495.5629577636719,3
2023-02-18T22:07:42.383Z,37,2018947.803934625,-0.2859344482421875,0.3896942138671875,-0.7014617919921875,2018947.784915625,0.4337756633758545,-0.8209212422370911,0.6262004971504211,2018947.789279625,127.8450622558594,87.92686462402344,-495.1470642089844,3
2023-02-18T22:07:42.395Z,38,2018947.823923625,-0.29217529296875,0.4022064208984375,-0.6963043212890625,2018947.804934625,0.5075063705444336,-0.8981651663780212,0.7870599627494812,2018947.808993625,126.8563232421875,87.7647705078125,-494.504150390625,3
2023-02-18T22:07:42.420Z,39,2018947.843943625,-0.2489471435546875,0.394775390625,-0.7061767578125,2018947.824923625,0.5547686815261841,-0.9411209225654602,0.8933104872703552,2018947.828738625,125.8988494873047,87.97590637207031,-493.9758911132812,3
2023-02-18T22:07:42.436Z,40,2018947.863932625,-0.2135162353515625,0.4168243408203125,-0.7012786865234375,2018947.844943625,0.7098568081855774,-1.154191613197327,1.058180451393127,2018947.848453625,125.0124969482422,87.80195617675781,-493.484375,3
2023-02-18T22:07:42.465Z,41,2018947.883952625,-0.2080841064453125,0.4256134033203125,-0.6636810302734375,2018947.864932625,0.92648845911026,-1.454533100128174,1.255968570709229,2018947.868167625,124.0293884277344,87.74555969238281,-492.4511108398438,3
2023-02-18T22:07:42.475Z,42,2018947.903971625,-0.20086669921875,0.4179534912109375,-0.6417236328125,2018947.884952625,1.170310974121094,-1.768529057502747,1.512170791625977,2018947.887851625,122.6019744873047,87.77742004394531,-491.6188659667969,3
2023-02-18T22:07:42.504Z,43,2018947.923960625,-0.195648193359375,0.38348388671875,-0.6409912109375,2018947.904971625,1.38571035861969,-2.114757061004639,1.815120339393616,2018947.907565625,120.7581634521484,87.73104858398438,-490.0474243164062,3
2023-02-18T22:07:42.515Z,44,2018947.9439805,-0.208526611328125,0.4188079833984375,-0.6589202880859375,2018947.924960625,1.601345419883728,-2.489221572875977,2.210222005844116,2018947.927279625,119.1454467773438,88.03530883789062,-488.6271667480469,3
2023-02-18T22:07:42.544Z,45,2018947.9639995,-0.23114013671875,0.4563446044921875,-0.6846160888671875,2018947.9449805,1.99101197719574,-3.013948678970337,2.584713459014893,2018947.9470245,116.9856414794922,88.48434448242188,-486.78369140625,3
2023-02-18T22:07:42.555Z,46,2018947.9839885,-0.3047332763671875,0.4639129638671875,-0.7060699462890625,2018947.9649995,2.479508876800537,-3.650267362594604,2.876058578491211,2018947.9667395,114.8062438964844,88.75431823730469,-483.7777709960938,3
2023-02-18T22:07:42.585Z,47,2018948.0040085,-0.4092254638671875,0.449249267578125,-0.709228515625,2018947.9849885,2.966931104660034,-4.224133491516113,3.087983369827271,2018947.9864535,112.5672454833984,89.41348266601562,-480.5800170898438,3
2023-02-18T22:07:42.595Z,48,2018948.0240275,-0.5108184814453125,0.3995361328125,-0.6912689208984375,2018948.0050085,3.323896169662476,-4.486278057098389,3.2535400390625,2018948.0061675,110.3154449462891,90.66831970214844,-476.8662719726562,3
2023-02-18T22:07:42.623Z,49,2018948.0440165,-0.589141845703125,0.36859130859375,-0.6692352294921875,2018948.0250275,3.576706171035767,-4.427577495574951,3.442785739898682,2018948.0258825,108.55419921875,91.96481323242188,-472.9702758789062,3
2023-02-18T22:07:42.636Z,50,2018948.0640365,-0.5455780029296875,0.377227783203125,-0.621795654296875,2018948.0450165,3.80423378944397,-4.361032009124756,3.678513765335083,2018948.0455965,107.3045196533203,94.15010070800781,-469.2117309570312,3
2023-02-18T22:07:42.660Z,51,2018948.0840555,-0.61077880859375,0.41253662109375,-0.482147216796875,2018948.0650365,4.107473373413086,-4.504258632659912,3.698716402053833,2018948.0653105,106.6332244873047,96.66116333007812,-465.5805053710938,3
2023-02-18T22:07:42.675Z,52,2018948.1040445,-0.7610931396484375,0.32037353515625,-0.36175537109375,2018948.0850555,4.370906352996826,-4.89808988571167,3.617083549499512,2018948.0850255,106.2493896484375,99.43577575683594,-461.615234375,3
2023-02-18T22:07:42.704Z,53,2018948.1240645,-0.9818572998046875,0.248260498046875,-0.29339599609375,2018948.1050445,4.609133720397949,-5.224522113800049,3.654272079467773,2018948.1047395,106.5892028808594,102.6095123291016,-458.1064453125,3
2023-02-18T22:07:42.715Z,54,2018948.1440535,-1.200912475585938,0.29351806640625,-0.1957550048828125,2018948.1250645,4.787797927856445,-5.282529354095459,3.563974857330322,2018948.1244535,107.7596588134766,105.9449462890625,-454.3939514160156,3
2023-02-18T22:07:42.744Z,55,2018948.1640725,-1.3265380859375,0.253509521484375,-0.03363037109375,2018948.1450535,4.899754524230957,-5.098065853118896,3.2212073802948,2018948.1441985,109.3917846679688,109.3812408447266,-451.138671875,3
2023-02-18T22:07:42.755Z,56,2018948.1840925,-1.513916015625,0.119964599609375,0.1884307861328125,2018948.1650725,4.29957914352417,-3.902594327926636,2.610466718673706,2018948.1638825,111.1144561767578,112.9024810791016,-449.2042541503906,3
2023-02-18T22:07:42.783Z,57,2018948.2040815,-1.572769165039062,0.0281524658203125,0.1637115478515625,2018948.1850925,2.891453266143799,-1.780186772346497,2.07450795173645,2018948.1835975,112.5826416015625,115.5807037353516,-448.5763549804688,3
2023-02-18T22:07:42.795Z,58,2018948.2241005,-1.310577392578125,0.0651092529296875,-0.003326416015625,2018948.2050815,1.707706212997437,-0.1562596410512924,1.967637896537781,2018948.2033115,113.44384765625,117.9082946777344,-448.6162719726562,3
2023-02-18T22:07:42.819Z,59,2018948.2441205,-1.0418701171875,0.1655426025390625,-0.1076202392578125,2018948.2251005,1.078677415847778,0.357446551322937,1.80222761631012,2018948.2230255,114.1799774169922,119.9591674804688,-449.4502563476562,3
2023-02-18T22:07:42.836Z,60,2018948.2641095,-0.8983917236328125,0.2911834716796875,-0.13726806640625,2018948.2451205,0.819046676158905,0.1556644290685654,1.547190308570862,2018948.2427095,114.62890625,121.2606658935547,-450.0935668945312,3
2023-02-18T22:07:42.861Z,61,2018948.2841295,-0.9053802490234375,0.4515533447265625,-0.0684356689453125,2018948.2651095,0.7866644859313965,-0.3724127113819122,1.462245345115662,2018948.2624235,115.3046569824219,122.5570678710938,-450.3663635253906,3
2023-02-18T22:07:42.875Z,62,2018948.3041485,-0.94842529296875,0.4268035888671875,-0.0680084228515625,2018948.2851295,0.704066276550293,-0.7855422496795654,1.335739612579346,2018948.2821385,116.1971282958984,123.7970886230469,-450.1753540039062,3
2023-02-18T22:07:42.897Z,63,2018948.3241375,-0.929046630859375,0.326690673828125,-0.1175994873046875,2018948.3051485,0.5792673826217651,-0.9056606292724609,1.148747563362122,2018948.3018225,116.9743041992188,124.874267578125,-450.2571105957031,3
2023-02-18T22:07:42.915Z,64,2018948.3441575,-0.8595123291015625,0.3178558349609375,-0.1255035400390625,2018948.3251375,0.46249920129776,-0.9133886098861694,0.9012296795845032,2018948.3215365,117.6527252197266,125.8002166748047,-449.8222045898438,3
2023-02-18T22:07:42.944Z,65,2018948.3641765,-0.80377197265625,0.33245849609375,-0.0550384521484375,2018948.3451575,0.2236725091934204,-0.8598875999450684,0.6121587157249451,2018948.3412205,118.0436401367188,126.4366149902344,-449.5224304199219,3
2023-02-18T22:07:42.956Z,66,2018948.3841655,-0.8514404296875,0.423370361328125,-0.094451904296875,2018948.3651765,-0.04908259212970734,-0.5930417776107788,0.4508276283740997,2018948.3609345,118.5680389404297,126.9969482421875,-449.1477661132812,3
2023-02-18T22:07:42.981Z,67,2018948.4041855,-0.8230438232421875,0.4726409912109375,-0.0828704833984375,2018948.3851655,-0.2383065819740295,-0.1998513340950012,0.3254553377628326,2018948.3806495,118.6433715820312,127.4977569580078,-448.7807006835938,3
2023-02-18T22:07:42.996Z,68,2018948.4242045,-0.7631683349609375,0.4677734375,-0.089569091796875,2018948.4051855,-0.3744415044784546,0.04639945551753044,0.2204255759716034,2018948.4003635,118.7368011474609,127.7469482421875,-448.5281982421875,3
2023-02-18T22:07:43.019Z,69,2018948.4441935,-0.739715576171875,0.563568115234375,-0.0860137939453125,2018948.4252045,-0.4597311019897461,0.212568461894989,0.1676060408353806,2018948.4200775,118.6620178222656,128.0527648925781,-448.3353881835938,3
2023-02-18T22:07:43.036Z,70,2018948.4642135,-0.6829833984375,0.6399383544921875,-0.10162353515625,2018948.4451935,-0.4398735165596008,0.2192079871892929,0.1312685459852219,2018948.4397925,118.3181915283203,128.0227661132812,-448.2613830566406,3
2023-02-18T22:07:43.065Z,71,2018948.4842025,-0.715301513671875,0.62896728515625,-0.07952880859375,2018948.4652135,-0.341605544090271,0.07941253483295441,0.0709785670042038,2018948.4595065,118.1863555908203,128.3787841796875,-448.0394897460938,3
2023-02-18T22:07:43.076Z,72,2018948.5042215,-0.7765045166015625,0.67620849609375,-0.0942230224609375,2018948.4852025,-0.4637271761894226,0.2165653258562088,0.02916427701711655,2018948.4792205,117.6016540527344,128.3208312988281,-448.05224609375,3
2023-02-18T22:07:43.102Z,73,2018948.5242415,-0.7533416748046875,0.7481231689453125,-0.103729248046875,2018948.5052215,-0.4350899457931519,0.28814497590065,0.0393117181956768,2018948.4989655,117.6344909667969,128.6227111816406,-448.0062866210938,3
2023-02-18T22:07:43.115Z,74,2018948.5442305,-0.75335693359375,0.734619140625,-0.07403564453125,2018948.5252415,-0.4064939916133881,0.3340128660202026,-0.03997964039444923,2018948.5186805,117.1774444580078,128.6024627685547,-447.787353515625,3
2023-02-18T22:07:43.140Z,75,2018948.5642495,-0.7323150634765625,0.7096405029296875,-0.0791015625,2018948.5452305,-0.4974992573261261,0.5037353038787842,-0.06060529127717018,2018948.5383945,116.7866973876953,128.5185089111328,-447.8965759277344,3
2023-02-18T22:07:43.156Z,76,2018948.5842695,-0.711700439453125,0.724609375,-0.0908050537109375,2018948.5652495,-0.5209553241729736,0.5103670954704285,-0.03287432715296745,2018948.5581085,116.6093597412109,128.5000915527344,-448.0131225585938,3
2023-02-18T22:07:43.184Z,77,2018948.6042585,-0.6957244873046875,0.80072021484375,-0.09942626953125,2018948.5852695,-0.5223084688186646,0.5217918157577515,0.02917679399251938,2018948.5778235,115.9107666015625,128.7001953125,-448.136474609375,3
2023-02-18T22:07:43.196Z,78,2018948.6242775,-0.700531005859375,0.8242645263671875,-0.099029541015625,2018948.6052585,-0.3612048029899597,0.3901640176773071,0.08402086794376373,2018948.5975375,115.58349609375,128.8795166015625,-448.4700317382812,3
2023-02-18T22:07:43.223Z,79,2018948.6442975,-0.75799560546875,0.7969818115234375,-0.113006591796875,2018948.6252775,-0.2511374056339264,0.2685723304748535,0.1301028728485107,2018948.6172515,115.1625518798828,129.1104736328125,-448.4667358398438,3
2023-02-18T22:07:43.236Z,80,2018948.6642865,-0.7954254150390625,0.8126220703125,-0.1117401123046875,2018948.6452975,-0.2326899766921997,0.2996612787246704,0.2121804356575012,2018948.6369665,115.0478820800781,129.2129058837891,-448.9295959472656,3
2023-02-18T22:07:43.263Z,81,2018948.6843065,-0.796661376953125,0.8126220703125,-0.140350341796875,2018948.6652865,-0.2827789783477783,0.3802333474159241,0.2932958006858826,2018948.6566805,114.8280181884766,129.9291381835938,-449.3895263671875,3
2023-02-18T22:07:43.276Z,82,2018948.7043255,-0.7559967041015625,0.81732177734375,-0.1658477783203125,2018948.6853065,-0.2552402913570404,0.3446844220161438,0.3939459621906281,2018948.6764255,114.6161804199219,130.414306640625,-449.653076171875,3
2023-02-18T22:07:43.299Z,83,2018948.7243145,-0.7397613525390625,0.8461151123046875,-0.1902618408203125,2018948.7053255,-0.2388019263744354,0.2752496898174286,0.4458720088005066,2018948.6961395,114.5983581542969,130.6211853027344,-449.9634399414062,3
2023-02-18T22:07:43.316Z,84,2018948.7443345,-0.7516326904296875,0.871337890625,-0.1466217041015625,2018948.7253145,-0.1646933406591415,0.07232532650232315,0.4808113574981689,2018948.7158545,114.7927398681641,130.8587951660156,-450.1482238769531,3
2023-02-18T22:07:43.345Z,85,2018948.7643235,-0.75946044921875,0.85723876953125,-0.092315673828125,2018948.7453345,-0.0848778709769249,-0.1402053087949753,0.549773633480072,2018948.7552825,114.9911499023438,132.5141754150391,-450.599853515625,3
2023-02-18T22:07:43.356Z,86,2018948.7843425,-0.7661590576171875,0.9080963134765625,-0.0419769287109375,2018948.7653235,-0.1184534132480621,-0.2204343676567078,0.7029224634170532,2018948.7749975,115.6530914306641,133.2279510498047,-450.7681579589844,3
2023-02-18T22:07:43.393Z,87,2018948.8043625,-0.71630859375,0.9918365478515625,-0.1356658935546875,2018948.7853425,-0.2207659333944321,-0.1830832660198212,0.8809736967086792,2018948.7947115,115.8980102539062,134.0353851318359,-451.04541015625,3
2023-02-18T22:07:43.396Z,88,2018948.8243515,-0.744659423828125,0.9069976806640625,-0.2073822021484375,2018948.8053625,0.07704471796751022,-0.4213573634624481,0.8005339503288269,2018948.8144255,116.7826385498047,134.7459869384766,-451.0411987304688,3
2023-02-18T22:07:43.419Z,89,2018948.8443705,-0.7360076904296875,0.91705322265625,-0.1585540771484375,2018948.8253515,0.3340911567211151,-0.7643453478813171,0.8419091105461121,2018948.8341405,117.2713928222656,135.5815582275391,-450.8950805664062,3
2023-02-18T22:07:43.436Z,90,2018948.8643905,-0.7989654541015625,0.9791107177734375,-0.080841064453125,2018948.8453705,0.4561992287635803,-0.9594133496284485,0.8200711607933044,2018948.8538545,118.39794921875,136.2567901611328,-450.5702514648438,3
2023-02-18T22:07:43.465Z,91,2018948.8843795,-0.6871490478515625,0.8898773193359375,-0.0425262451171875,2018948.8653905,0.3687458038330078,-0.8159688711166382,0.9126549363136292,2018948.8735685,119.7168426513672,136.7808990478516,-450.6412353515625,3
2023-02-18T22:07:43.476Z,92,2018948.9043985,-0.669097900390625,0.921875,-0.1012420654296875,2018948.8853795,0.3574257791042328,-0.7694208025932312,0.9545626640319824,2018948.8932835,120.5346069335938,137.6117706298828,-450.5018920898438,3
2023-02-18T22:07:43.509Z,93,2018948.9244185,-0.8602294921875,0.860931396484375,-0.2011260986328125,2018948.9053985,0.5545462965965271,-0.9089778661727905,0.5144923329353333,2018948.9129975,121.3724975585938,137.8266143798828,-450.4949951171875,3
2023-02-18T22:07:43.516Z,94,2018948.944375042,-0.8419189453125,0.7469329833984375,-0.068511962890625,2018948.9254185,0.5239676237106323,-0.9076548218727112,0.2241619974374771,2018948.932680042,121.7545928955078,138.1207122802734,-450.3402709960938,3
2023-02-18T22:07:43.546Z,95,2018948.964394042,-0.74951171875,0.75421142578125,-0.0977783203125,2018948.945375042,0.4915617406368256,-0.7699976563453674,0.365888237953186,2018948.952394042,122.1991271972656,138.3124084472656,-450.5276794433594,3
2023-02-18T22:07:43.556Z,96,2018948.984414042,-0.8199920654296875,0.7204132080078125,-0.084442138671875,2018948.965394042,0.277914434671402,-0.5529076457023621,0.1351426392793655,2018948.972108042,122.7988128662109,138.2969512939453,-450.2227783203125,3
2023-02-18T22:07:43.581Z,97,2018949.004403042,-0.857818603515625,0.6869049072265625,-0.069122314453125,2018948.985414042,-0.08227596431970596,0.03955486789345741,-0.04177674278616905,2018948.991823042,122.8096618652344,138.5139312744141,-450.5233764648438,3
2023-02-18T22:07:43.596Z,98,2018949.024422042,-0.74652099609375,0.7285919189453125,-0.116851806640625,2018949.005403042,-0.1096830889582634,0.1615657210350037,0.1032398343086243,2018949.011537042,122.8408660888672,138.3535614013672,-450.3919067382812,3
2023-02-18T22:07:43.621Z,99,2018949.044442042,-0.748504638671875,0.7403106689453125,-0.124908447265625,2018949.025422042,0.01437787432223558,-0.0692557692527771,0.07768361270427704,2018949.031251042,122.9486083984375,138.5094451904297,-450.4555053710938,3
2023-02-18T22:07:43.636Z,100,2018949.064431042,-0.7483062744140625,0.701568603515625,-0.10675048828125,2018949.045442042,0.08357825130224228,-0.1819365173578262,0.06495050340890884,2018949.050966042,123.3047485351562,138.6489105224609,-450.4067993164062,3
2023-02-18T22:07:43.661Z,101,2018949.084451042,-0.767730712890625,0.7064971923828125,-0.1268157958984375,2018949.065431042,0.05947637557983398,-0.1258897483348846,0.1378444135189056,2018949.070680042,123.314453125,138.8099975585938,-450.4653015136719,3
2023-02-18T22:07:43.676Z,102,2018949.104440042,-0.7788543701171875,0.6895599365234375,-0.108123779296875,2018949.085451042,0.007183876819908619,-0.02906174585223198,0.1601907312870026,2018949.090394042,123.5710754394531,138.7985382080078,-450.4472045898438,3
2023-02-18T22:07:43.705Z,103,2018949.124459042,-0.7945556640625,0.6820220947265625,-0.1182861328125,2018949.105440042,-0.07271362096071243,0.1380657255649567,0.136995404958725,2018949.110109042,123.5851440429688,138.7879333496094,-450.7363891601562,3
2023-02-18T22:07:43.716Z,104,2018949.144479042,-0.777679443359375,0.708038330078125,-0.1452789306640625,2018949.125459042,-0.1434953808784485,0.3233333230018616,0.1391006261110306,2018949.129823042,123.3762359619141,138.8101806640625,-450.4896240234375,3
2023-02-18T22:07:43.744Z,105,2018949.164468042,-0.7432708740234375,0.720672607421875,-0.141357421875,2018949.145479042,-0.1699003577232361,0.423913985490799,0.0993335098028183,2018949.149537042,123.5252990722656,138.9111938476562,-450.825439453125,3
2023-02-18T22:07:43.756Z,106,2018949.184487042,-0.7369232177734375,0.7810211181640625,-0.15380859375,2018949.165468042,-0.192789688706398,0.4666343033313751,0.09206308424472809,2018949.169252042,123.4848937988281,138.9957733154297,-451.053466796875,3
2023-02-18T22:07:43.780Z,107,2018949.204507042,-0.7063140869140625,0.7912445068359375,-0.1459503173828125,2018949.185487042,-0.09605009853839874,0.2948588132858276,0.168769046664238,2018949.188966042,123.4737548828125,139.0052795410156,-451.0841674804688,3
2023-02-18T22:07:43.796Z,108,2018949.224496042,-0.721466064453125,0.772003173828125,-0.1327667236328125,2018949.205507042,-0.03862062841653824,0.1996148377656937,0.1644661724567413,2018949.208681042,123.7379913330078,139.3255004882812,-451.2386779785156,3
2023-02-18T22:07:43.825Z,109,2018949.244515042,-0.7130126953125,0.76458740234375,-0.103515625,2018949.225496042,-0.1087022423744202,0.3181790411472321,0.09446685016155243,2018949.228395042,123.6233520507812,139.2595672607422,-451.2373352050781,3
2023-02-18T22:07:43.836Z,110,2018949.264535042,-0.637420654296875,0.7454071044921875,-0.113067626953125,2018949.245515042,-0.1522606462240219,0.424577921628952,0.06145057827234268,2018949.248109042,123.5614166259766,139.1269378662109,-451.2823181152344,3
2023-02-18T22:07:43.865Z,111,2018949.284524042,-0.5639495849609375,0.7328643798828125,-0.1259613037109375,2018949.265535042,-0.1411280930042267,0.3552220165729523,0.09357336163520813,2018949.267854042,123.57421875,139.1548004150391,-451.6389770507812,3
2023-02-18T22:07:43.876Z,112,2018949.304543042,-0.5768280029296875,0.7289581298828125,-0.142822265625,2018949.285524042,-0.04391872137784958,0.1739933639764786,0.1110753864049911,2018949.287568042,123.2413482666016,139.2055969238281,-451.587158203125,3
2023-02-18T22:07:43.896Z,113,2018949.324563042,-0.6312408447265625,0.7427520751953125,-0.149017333984375,2018949.305543042,0.03600940108299255,0.06410681456327438,0.1332488656044006,2018949.307283042,123.5522613525391,139.2977905273438,-451.6585693359375,3
2023-02-18T22:07:43.916Z,114,2018949.344552042,-0.64263916015625,0.71661376953125,-0.1196136474609375,2018949.325563042,0.136174350976944,-0.008214786648750305,0.1286940574645996,2018949.326967042,123.7627258300781,139.4549865722656,-451.7918395996094,3
2023-02-18T22:07:43.939Z,115,2018949.364571042,-0.680908203125,0.6811370849609375,-0.1055145263671875,2018949.345552042,0.08538787066936493,0.1083477810025215,0.05762441456317902,2018949.346681042,123.8148193359375,139.4024353027344,-452.0798950195312,3
2023-02-18T22:07:43.956Z,116,2018949.384560042,-0.6902618408203125,0.7216644287109375,-0.160552978515625,2018949.365571042,-0.03230121359229088,0.3038584291934967,0.07914222031831741,2018949.366395042,123.690673828125,139.2149505615234,-452.2260131835938,3
2023-02-18T22:07:43.985Z,117,2018949.404580042,-0.67413330078125,0.7552642822265625,-0.20196533203125,2018949.385560042,-0.05924122035503387,0.298536628484726,0.05240222066640854,2018949.386110042,123.8542633056641,139.8278503417969,-452.2430419921875,3
2023-02-18T22:07:43.996Z,118,2018949.424599042,-0.671722412109375,0.8002471923828125,-0.24560546875,2018949.405580042,0.02390746399760246,0.1352675408124924,0.02373169548809528,2018949.405824042,123.9495697021484,139.6890716552734,-452.3786010742188,3
2023-02-18T22:07:44.025Z,119,2018949.444588042,-0.6409454345703125,0.7803802490234375,-0.234161376953125,2018949.425599042,0.1249858736991882,-0.1652299761772156,0.01177516672760248,2018949.425538042,123.7427368164062,139.6337738037109,-452.4356689453125,3
2023-02-18T22:07:44.036Z,120,2018949.464608042,-0.7164764404296875,0.7455291748046875,-0.2137603759765625,2018949.445588042,0.03902649506926537,-0.2684215903282166,-0.03926671296358109,2018949.445253042,124.1125793457031,139.7436828613281,-452.4770202636719,3
2023-02-18T22:07:44.060Z,121,2018949.484628042,-0.8758697509765625,0.809814453125,-0.283233642578125,2018949.465608042,-0.1822182685136795,-0.006772684864699841,-0.08812879025936127,2018949.464967042,124.0158233642578,139.8666687011719,-452.2171325683594,3
2023-02-18T22:07:44.076Z,122,2018949.504617042,-0.907379150390625,1.026641845703125,-0.20819091796875,2018949.485628042,-0.2699973881244659,0.3060952126979828,-0.1699024885892868,2018949.484682042,123.9328308105469,139.7066192626953,-452.4234619140625,3
2023-02-18T22:07:44.104Z,123,2018949.524636042,-0.7354278564453125,1.0621337890625,-0.0839691162109375,2018949.505617042,-0.2142523676156998,0.3998081088066101,-0.2312044650316238,2018949.504396042,123.5075378417969,139.3263702392578,-452.1629028320312,3
2023-02-18T22:07:44.116Z,124,2018949.544656042,-0.6422882080078125,1.038986206054688,-0.1115570068359375,2018949.525636042,-0.2306838035583496,0.4478041529655457,-0.2560312449932098,2018949.524110042,123.3067474365234,139.1741790771484,-452.4613037109375,3
2023-02-18T22:07:44.143Z,125,2018949.564645042,-0.6661834716796875,0.9949188232421875,-0.154876708984375,2018949.545656042,-0.09679391980171204,0.255050390958786,-0.2706139087677002,2018949.543825042,123.1285400390625,139.0732879638672,-452.6432189941406,3
2023-02-18T22:07:44.156Z,126,2018949.584664042,-0.68157958984375,0.9670867919921875,-0.17041015625,2018949.565645042,0.04516161978244781,0.06620112061500549,-0.2283471524715424,2018949.563539042,123.1195831298828,139.0239105224609,-452.7593078613281,3
2023-02-18T22:07:44.183Z,127,2018949.604684042,-0.6695404052734375,0.9933624267578125,-0.156951904296875,2018949.585664042,0.1473822593688965,-0.04586442559957504,-0.2103798687458038,2018949.583284042,123.1055908203125,138.8170623779297,-452.2492065429688,3
2023-02-18T22:07:44.196Z,128,2018949.624673042,-0.66845703125,1.029632568359375,-0.1377410888671875,2018949.605684042,0.2430435419082642,-0.1472480446100235,-0.1709248721599579,2018949.602998042,123.1824798583984,138.6466369628906,-452.6322631835938,3
2023-02-18T22:07:44.220Z,129,2018949.644692042,-0.6470489501953125,1.03857421875,-0.1019287109375,2018949.625673042,0.3434508442878723,-0.2533305287361145,-0.1248476579785347,2018949.622713042,123.4879608154297,138.4565887451172,-452.4347229003906,3
2023-02-18T22:07:44.236Z,130,2018949.664712042,-0.618682861328125,1.024993896484375,-0.073272705078125,2018949.665712042,0.5680546760559082,-0.4761068820953369,-0.1530116498470306,2018949.642427042,123.6241912841797,138.2366485595703,-452.4505615234375,3
2023-02-18T22:07:44.260Z,131,2018949.684701042,-0.6378326416015625,0.9215240478515625,-0.0983123779296875,2018949.665712042,0.5680546760559082,-0.4761068820953369,-0.1530116498470306,2018949.662141042,124.0338897705078,138.2276763916016,-452.4324035644531,3
2023-02-18T22:07:44.276Z,132,2018949.704720042,-0.676025390625,0.9109954833984375,-0.08599853515625,2018949.685701042,0.5202096104621887,-0.4495152235031128,-0.05564035847783089,2018949.681856042,124.1370239257812,137.8739013671875,-452.4363098144531,3
2023-02-18T22:07:44.304Z,133,2018949.724709042,-0.6459808349609375,0.9037933349609375,-0.1058349609375,2018949.705720042,0.4476917684078217,-0.3510091602802277,0.01717925257980824,2018949.701570042,124.3636474609375,138.004150390625,-452.4093627929688,3
2023-02-18T22:07:44.316Z,134,2018949.744729042,-0.61065673828125,0.9340667724609375,-0.11322021484375,2018949.725709042,0.4420194923877716,-0.3464532792568207,0.05526671931147575,2018949.721284042,124.7843627929688,137.9666900634766,-452.4151611328125,3
2023-02-18T22:07:44.344Z,135,2018949.764748042,-0.6007537841796875,0.902557373046875,-0.10699462890625,2018949.745729042,0.5623760223388672,-0.4967783391475677,0.1007934585213661,2018949.740999042,125.1141815185547,137.7521514892578,-452.1878662109375,3
2023-02-18T22:07:44.356Z,136,2018949.784737042,-0.6192626953125,0.862152099609375,-0.1241607666015625,2018949.765748042,0.6313915252685547,-0.5725393891334534,0.1327196955680847,2018949.760713042,125.6334075927734,137.7890930175781,-452.5802612304688,3
2023-02-18T22:07:44.390Z,137,2018949.804757042,-0.5906524658203125,0.87384033203125,-0.1056976318359375,2018949.785737042,0.651233971118927,-0.5733215808868408,0.1713176965713501,2018949.780427042,125.9804534912109,137.8277282714844,-452.7423706054688,3
2023-02-18T22:07:44.396Z,138,2018949.824776042,-0.5736846923828125,0.8534088134765625,-0.1142120361328125,2018949.805757042,0.6804301738739014,-0.5885716676712036,0.1827317327260971,2018949.800111042,126.5901336669922,137.82177734375,-452.7560424804688,3
2023-02-18T22:07:44.424Z,139,2018949.844765042,-0.5941009521484375,0.84405517578125,-0.115234375,2018949.825776042,0.6936253309249878,-0.6206027865409851,0.1681607812643051,2018949.819826042,127.121826171875,138.0368499755859,-452.8343811035156,3
2023-02-18T22:07:44.436Z,140,2018949.864785042,-0.5701904296875,0.8144073486328125,-0.1062469482421875,2018949.845765042,0.6874446868896484,-0.5841872692108154,0.1363306790590286,2018949.839540042,127.9029235839844,137.8832855224609,-453.24560546875,3
2023-02-18T22:07:44.465Z,141,2018949.884805042,-0.5680694580078125,0.8470611572265625,-0.0981903076171875,2018949.865785042,0.6934104561805725,-0.5829656720161438,0.1017428711056709,2018949.859254042,128.3844451904297,137.8322296142578,-453.563720703125,3
2023-02-18T22:07:44.476Z,142,2018949.904794042,-0.5533294677734375,0.8037109375,-0.0760345458984375,2018949.885805042,0.782885730266571,-0.6663918495178223,0.06026919931173325,2018949.878969042,128.7903747558594,137.8263092041016,-453.6790771484375,3
2023-02-18T22:07:44.504Z,143,2018949.924813042,-0.6001739501953125,0.7907867431640625,-0.0552825927734375,2018949.905794042,0.8407381176948547,-0.7431907653808594,0.04080308973789215,2018949.898683042,129.285888671875,137.8204956054688,-453.905517578125,3
2023-02-18T22:07:44.516Z,144,2018949.94480875,-0.6171875,0.730865478515625,-0.0733184814453125,2018949.925813042,0.7918856143951416,-0.6350640654563904,0.03461656719446182,2018949.918397042,129.9920654296875,137.9893951416016,-454.3032836914062,3
2023-02-18T22:07:44.546Z,145,2018949.96479775,-0.6265869140625,0.6878814697265625,-0.13641357421875,2018949.94580875,0.733506441116333,-0.5834418535232544,0.05822016298770905,2018949.93811775,130.1611175537109,137.7366333007812,-454.5193786621094,3
2023-02-18T22:07:44.556Z,146,2018949.98481675,-0.6353759765625,0.6215057373046875,-0.1964569091796875,2018949.96579775,0.7068061232566833,-0.5934601426124573,0.102608397603035,2018949.95783275,130.7806243896484,137.7543487548828,-455.1254272460938,3
2023-02-18T22:07:44.576Z,147,2018950.00480575,-0.6334991455078125,0.587799072265625,-0.2274627685546875,2018949.98581675,0.7162821888923645,-0.6743864417076111,0.1634863913059235,2018949.97754675,130.9751129150391,137.6123809814453,-455.326904296875,3
2023-02-18T22:07:44.596Z,148,2018950.02482575,-0.5960693359375,0.6162872314453125,-0.140350341796875,2018950.00580575,0.6999402642250061,-0.7207355499267578,0.2577974498271942,2018949.99726075,131.5099792480469,137.6167755126953,-455.356201171875,3
2023-02-18T22:07:44.616Z,149,2018950.04484475,-0.621826171875,0.5746307373046875,-0.124298095703125,2018950.02582575,0.7322372198104858,-0.830411434173584,0.3302218616008759,2018950.01697575,132.0452270507812,137.5354766845703,-455.5472717285156,3
2023-02-18T22:07:44.636Z,150,2018950.06483375,-0.620269775390625,0.5891571044921875,-0.141632080078125,2018950.04584475,0.6444117426872253,-0.6899597644805908,0.4216931760311127,2018950.03668975,132.2599792480469,137.816650390625,-455.8423156738281,3
2023-02-18T22:07:44.656Z,151,2018950.08485375,-0.5924224853515625,0.6050567626953125,-0.1769866943359375,2018950.06583375,0.7018718123435974,-0.6701631546020508,0.4689890444278717,2018950.05640375,132.7755889892578,137.729248046875,-456.07373046875,3
2023-02-18T22:07:44.676Z,152,2018950.10487275,-0.5951690673828125,0.6004791259765625,-0.1716461181640625,2018950.08585375,0.8297818899154663,-0.7998093366622925,0.5130334496498108,2018950.09586375,133.8499450683594,137.5689849853516,-456.6444091796875,3
2023-02-18T22:07:44.696Z,153,2018950.12486175,-0.6256866455078125,0.5880889892578125,-0.186187744140625,2018950.10587275,0.7926549911499023,-0.7736472487449646,0.55515056848526,2018950.11557775,134.5169372558594,137.7934722900391,-456.7956848144531,3
2023-02-18T22:07:44.716Z,154,2018950.14488175,-0.5621337890625,0.6085052490234375,-0.2172088623046875,2018950.12586175,0.6795713305473328,-0.5964820384979248,0.5517784953117371,2018950.13529175,134.6056823730469,138.0131378173828,-457.4398498535156,3
2023-02-18T22:07:44.736Z,155,2018950.16490075,-0.4883575439453125,0.6472930908203125,-0.1729278564453125,2018950.14588175,0.802905797958374,-0.6602258682250977,0.5263199806213379,2018950.15503675,134.9264984130859,137.9836273193359,-457.7153625488281,3
2023-02-18T22:07:44.756Z,156,2018950.18488975,-0.584381103515625,0.589202880859375,-0.1533660888671875,2018950.16590075,1.114447474479675,-1.037065267562866,0.5217915773391724,2018950.17475175,135.8514556884766,138.033935546875,-458.1622009277344,3
2023-02-18T22:07:44.776Z,157,2018950.20490975,-0.65838623046875,0.559967041015625,-0.14630126953125,2018950.18588975,1.065647602081299,-0.9794120788574219,0.5802697539329529,2018950.19443475,136.0756988525391,137.9917144775391,-458.4381713867188,3
2023-02-18T22:07:44.796Z,158,2018950.22492875,-0.6121978759765625,0.568695068359375,-0.2095947265625,2018950.20590975,0.8435053825378418,-0.6714638471603394,0.6555030345916748,2018950.21414975,136.5005798339844,138.1629486083984,-458.907470703125,3
2023-02-18T22:07:44.816Z,159,2018950.24491775,-0.508514404296875,0.6527862548828125,-0.2248687744140625,2018950.22592875,0.8092398643493652,-0.593855619430542,0.69599848985672,2018950.23386375,136.9844665527344,138.2817993164062,-459.3928833007812,3
2023-02-18T22:07:44.836Z,160,2018950.26493775,-0.5232696533203125,0.636688232421875,-0.1970062255859375,2018950.24591775,1.075441122055054,-0.9313945174217224,0.7138746976852417,2018950.25354775,137.4719696044922,138.1136627197266,-459.9161376953125,3
2023-02-18T22:07:44.857Z,161,2018950.28495775,-0.5973358154296875,0.5994415283203125,-0.1777191162109375,2018950.28595775,1.137459754943848,-0.9629625678062439,0.7925649881362915,2018950.27326175,138.0775146484375,138.1059875488281,-460.6701049804688,3
2023-02-18T22:07:44.876Z,162,2018950.30494675,-0.601776123046875,0.5898284912109375,-0.19366455078125,2018950.28595775,1.137459754943848,-0.9629625678062439,0.7925649881362915,2018950.29297675,138.5432434082031,138.2660980224609,-461.315185546875,3
2023-02-18T22:07:44.899Z,163,2018950.32496575,-0.5349273681640625,0.65301513671875,-0.2684173583984375,2018950.30594675,0.971619188785553,-0.7951146960258484,0.843713641166687,2018950.31269075,138.7483062744141,138.2207489013672,-461.68505859375,3
2023-02-18T22:07:44.916Z,164,2018950.34495475,-0.46875,0.6905517578125,-0.2635955810546875,2018950.32596575,1.027609705924988,-0.8989279270172119,0.8352783918380737,2018950.33243575,139.4956970214844,138.3001708984375,-462.4932861328125,3
2023-02-18T22:07:44.939Z,165,2018950.36497475,-0.5351104736328125,0.6871795654296875,-0.2144317626953125,2018950.34595475,1.262907743453979,-1.275526642799377,0.8181142807006836,2018950.35211975,139.9375915527344,138.22509765625,-463.1498718261719,3
2023-02-18T22:07:44.956Z,166,2018950.38499375,-0.6069488525390625,0.6542510986328125,-0.1836090087890625,2018950.36597475,1.303084135055542,-1.325966596603394,0.8391212821006775,2018950.37183375,140.610107421875,138.2073516845703,-464.0658569335938,3
2023-02-18T22:07:44.985Z,167,2018950.40498275,-0.609466552734375,0.6616668701171875,-0.237091064453125,2018950.38599375,1.150539398193359,-1.144237756729126,0.8639334440231323,2018950.39154775,140.8278350830078,138.0083312988281,-464.704345703125,3
2023-02-18T22:07:44.996Z,168,2018950.42500275,-0.549957275390625,0.7002410888671875,-0.28692626953125,2018950.40598275,1.03498113155365,-1.063375473022461,0.8754438757896423,2018950.41126275,141.6243896484375,138.0566253662109,-465.0250244140625,3
2023-02-18T22:07:45.024Z,169,2018950.44502175,-0.532501220703125,0.7235107421875,-0.2818145751953125,2018950.42600275,1.020233511924744,-1.156702518463135,0.8536011576652527,2018950.43097675,141.9721984863281,137.8535614013672,-465.8032836914062,3
2023-02-18T22:07:45.036Z,170,2018950.46501075,-0.6009521484375,0.7318572998046875,-0.235687255859375,2018950.44602175,1.118920683860779,-1.39811372756958,0.875468373298645,2018950.45069075,142.3969268798828,137.7890167236328,-466.4603881835938,3
2023-02-18T22:07:45.065Z,171,2018950.48503075,-0.6668853759765625,0.7244110107421875,-0.227996826171875,2018950.46601075,0.9888015985488892,-1.319282054901123,0.8501006960868835,2018950.47040575,142.6770629882812,137.8276062011719,-467.1880187988281,3
2023-02-18T22:07:45.076Z,172,2018950.50504975,-0.60980224609375,0.7530517578125,-0.3157501220703125,2018950.48603075,0.6711858510971069,-1.000508546829224,0.8055252432823181,2018950.49011975,142.9513244628906,137.6758575439453,-467.4617309570312,3
2023-02-18T22:07:45.110Z,173,2018950.52503875,-0.469512939453125,0.798004150390625,-0.3162994384765625,2018950.50604975,0.5376999378204346,-0.9484805464744568,0.7385952472686768,2018950.50983475,143.3106689453125,137.4534301757812,-467.9095458984375,3
2023-02-18T22:07:45.116Z,174,2018950.54505875,-0.5186767578125,0.7734527587890625,-0.27099609375,2018950.52603875,0.6650201082229614,-1.320044994354248,0.5977145433425903,2018950.52954875,143.6613616943359,137.6339416503906,-468.220703125,3
2023-02-18T22:07:45.144Z,175,2018950.56507775,-0.6121978759765625,0.7381744384765625,-0.2194671630859375,2018950.54605875,0.6376411914825439,-1.408319473266602,0.4995538890361786,2018950.54926275,143.8031768798828,137.3251495361328,-468.3960571289062,3
2023-02-18T22:07:45.156Z,176,2018950.58506675,-0.5878448486328125,0.7534637451171875,-0.2267913818359375,2018950.56607775,0.3429821133613586,-1.122188210487366,0.4122986197471619,2018950.56897775,143.8318634033203,137.3007354736328,-468.8001708984375,3
2023-02-18T22:07:45.184Z,177,2018950.60508675,-0.544219970703125,0.82891845703125,-0.226715087890625,2018950.58606675,0.1998382806777954,-1.06518030166626,0.3934186697006226,2018950.58869175,144.0277557373047,137.1894378662109,-468.782958984375,3
2023-02-18T22:07:45.196Z,178,2018950.62507575,-0.638580322265625,0.8736419677734375,-0.1512451171875,2018950.60608675,0.3427003622055054,-1.385053038597107,0.3763355612754822,2018950.60840575,144.0117950439453,137.5391998291016,-468.7944946289062,3
2023-02-18T22:07:45.222Z,179,2018950.64509475,-0.78076171875,0.81103515625,-0.08636474609375,2018950.64609475,0.7683259844779968,-1.693631410598755,0.5076531171798706,2018950.62812075,144.012451171875,137.1412811279297,-469.1905212402344,3
2023-02-18T22:07:45.236Z,180,2018950.66511475,-0.8031158447265625,0.7812042236328125,-0.041229248046875,2018950.64609475,0.7683259844779968,-1.693631410598755,0.5076531171798706,2018950.64783475,143.7532348632812,137.0837554931641,-469.2360534667969,3
2023-02-18T22:07:45.260Z,181,2018950.68510375,-0.7107086181640625,0.7881622314453125,-0.06072998046875,2018950.66611475,0.6077312231063843,-1.289041876792908,0.5764902234077454,2018950.66754875,144.1325378417969,137.0846405029297,-469.968017578125,3
2023-02-18T22:07:45.277Z,182,2018950.70512375,-0.6540069580078125,0.7813262939453125,-0.089752197265625,2018950.68610375,0.5587660670280457,-1.105780482292175,0.5714176893234253,2018950.68726375,144.1673583984375,136.9888000488281,-470.3334045410156,3
2023-02-18T22:07:45.303Z,183,2018950.72514275,-0.620574951171875,0.772125244140625,-0.07269287109375,2018950.70612375,0.6488325595855713,-1.172680616378784,0.5598981976509094,2018950.70697775,144.1833953857422,136.9672698974609,-470.472900390625,3
2023-02-18T22:07:45.316Z,184,2018950.74513175,-0.6504974365234375,0.7674560546875,-0.0327301025390625,2018950.72614275,0.6866438984870911,-1.255047202110291,0.544316828250885,2018950.72669175,144.4142456054688,136.8867340087891,-470.9879150390625,3
2023-02-18T22:07:45.344Z,185,2018950.76515175,-0.6953125,0.7393798828125,-0.0292510986328125,2018950.74613175,0.6092851758003235,-1.168736815452576,0.5206930041313171,2018950.74640675,144.3961944580078,136.8109283447266,-471.4299011230469,3
2023-02-18T22:07:45.356Z,186,2018950.78517075,-0.7124176025390625,0.703857421875,-0.0352935791015625,2018950.76615175,0.5365566611289978,-1.019987463951111,0.5398227572441101,2018950.76609075,144.4458160400391,136.5885772705078,-471.7555847167969,3
2023-02-18T22:07:45.383Z,187,2018950.80515975,-0.6949310302734375,0.699005126953125,-0.0443572998046875,2018950.78617075,0.548270583152771,-0.9929803609848022,0.6285419464111328,2018950.78580475,144.6318969726562,136.1355743408203,-471.8590087890625,3
2023-02-18T22:07:45.396Z,188,2018950.82517975,-0.6990814208984375,0.72796630859375,-0.044952392578125,2018950.80615975,0.5336788296699524,-0.9550977349281311,0.6732795834541321,2018950.80551875,145.0379486083984,136.3531036376953,-472.0970764160156,3
2023-02-18T22:07:45.419Z,189,2018950.84519875,-0.6746063232421875,0.74737548828125,-0.0339813232421875,2018950.82617975,0.4807061553001404,-0.8571476936340332,0.6692348122596741,2018950.82523375,145.6404876708984,136.4699249267578,-472.6157836914062,3
2023-02-18T22:07:45.437Z,190,2018950.86518775,-0.661468505859375,0.7686920166015625,-0.027191162109375,2018950.84619875,0.4576152265071869,-0.7986974716186523,0.6681471467018127,2018950.84494775,145.5245208740234,136.5108489990234,-472.8488464355469,3
2023-02-18T22:07:45.466Z,191,2018950.88520775,-0.6582183837890625,0.7995452880859375,0.00885009765625,2018950.86618775,0.4709028005599976,-0.7902235388755798,0.6600450277328491,2018950.86466175,145.8112335205078,136.3341217041016,-473.1760864257812,3
2023-02-18T22:07:45.477Z,192,2018950.90522675,-0.6715850830078125,0.8318328857421875,-0.0078277587890625,2018950.88620775,0.4640989601612091,-0.7267358899116516,0.6198132038116455,2018950.88437675,146.1508026123047,136.4286956787109,-473.547607421875,3
2023-02-18T22:07:45.506Z,193,2018950.92521575,-0.662261962890625,0.8368072509765625,-0.029937744140625,2018950.90622675,0.4700111746788025,-0.692474901676178,0.5908864736557007,2018950.90409075,146.1824340820312,136.2242126464844,-473.6558532714844,3
2023-02-18T22:07:45.516Z,194,2018950.945234875,-0.6503448486328125,0.8298492431640625,-0.067047119140625,2018950.92621575,0.4550916254520416,-0.6434399485588074,0.5398880243301392,2018950.92380475,146.6209869384766,136.2619476318359,-473.9496459960938,3
2023-02-18T22:07:45.543Z,195,2018950.965223875,-0.6229705810546875,0.8116302490234375,-0.08380126953125,2018950.946234875,0.4407739341259003,-0.6089357733726501,0.4870239794254303,2018950.943518875,146.8022918701172,136.0550231933594,-474.1934204101562,3
2023-02-18T22:07:45.556Z,196,2018950.985242875,-0.628082275390625,0.791839599609375,-0.091400146484375,2018950.966223875,0.4329378306865692,-0.6464016437530518,0.4310307502746582,2018950.963232875,146.7119445800781,135.8009948730469,-474.4310302734375,3
2023-02-18T22:07:45.579Z,197,2018951.005262875,-0.6335601806640625,0.7770843505859375,-0.08416748046875,2018950.986242875,0.3505604267120361,-0.5874736309051514,0.3790194988250732,2018950.982947875,146.86669921875,135.589599609375,-474.9109191894531,3
2023-02-18T22:07:45.597Z,198,2018951.025251875,-0.570892333984375,0.7996826171875,-0.0888519287109375,2018951.006262875,0.1983868628740311,-0.4205304384231567,0.3563818037509918,2018951.002661875,146.850830078125,135.5148315429688,-474.9814758300781,3
2023-02-18T22:07:45.624Z,199,2018951.045270875,-0.544342041015625,0.7982635498046875,-0.1032562255859375,2018951.026251875,0.1532939523458481,-0.4141617715358734,0.283433586359024,2018951.022375875,146.8165130615234,135.5748138427734,-474.8851318359375,3
2023-02-18T22:07:45.637Z,200,2018951.065290875,-0.582244873046875,0.7854461669921875,-0.085662841796875,2018951.046270875,0.1507727354764938,-0.453610360622406,0.2212873846292496,2018951.042090875,146.9432373046875,135.2686614990234,-474.8772583007812,3
2023-02-18T22:07:45.663Z,201,2018951.085279875,-0.6012420654296875,0.7845611572265625,-0.0631866455078125,2018951.066290875,0.09961740672588348,-0.390060156583786,0.2068269401788712,2018951.061804875,146.8246154785156,135.3041076660156,-475.1264038085938,3
2023-02-18T22:07:45.677Z,202,2018951.105299875,-0.5742340087890625,0.79156494140625,-0.090087890625,2018951.086279875,0.05249116942286491,-0.2512098550796509,0.2152473330497742,2018951.081518875,146.8577117919922,135.2885284423828,-475.2728576660156,3
2023-02-18T22:07:45.699Z,203,2018951.125318875,-0.5094757080078125,0.8247833251953125,-0.1184234619140625,2018951.106299875,0.03407807648181915,-0.1727533936500549,0.2216556966304779,2018951.101233875,146.9752349853516,135.1358642578125,-475.2033081054688,3
2023-02-18T22:07:45.717Z,204,2018951.145307875,-0.5399627685546875,0.838348388671875,-0.0834808349609375,2018951.126318875,0.1524699628353119,-0.324045717716217,0.1724748313426971,2018951.120947875,146.9461669921875,134.9788055419922,-475.4503784179688,3
2023-02-18T22:07:45.744Z,205,2018951.165327875,-0.6170501708984375,0.8385772705078125,-0.0623626708984375,2018951.146307875,0.1602178961038589,-0.3008612990379333,0.1114687398076057,2018951.140661875,146.9523773193359,134.9974060058594,-475.4901733398438,3
2023-02-18T22:07:45.757Z,206,2018951.185346875,-0.6080780029296875,0.8472137451171875,-0.12493896484375,2018951.166327875,0.0401732511818409,-0.04257915169000626,0.0589597225189209,2018951.160376875,146.8982696533203,134.8327484130859,-475.4409484863281,3
2023-02-18T22:07:45.784Z,207,2018951.205335875,-0.5471343994140625,0.8736114501953125,-0.176727294921875,2018951.186346875,0.000782436749432236,0.0355348251760006,0.04767191410064697,2018951.180090875,146.8874053955078,134.6728363037109,-475.3826904296875,3
2023-02-18T22:07:45.797Z,208,2018951.225355875,-0.550689697265625,0.875274658203125,-0.1775054931640625,2018951.206335875,0.0268076453357935,-0.0007555388147011399,0.00908377580344677,2018951.199804875,146.8200378417969,134.9813842773438,-475.6322021484375,3
2023-02-18T22:07:45.822Z,209,2018951.245374875,-0.575775146484375,0.838531494140625,-0.17181396484375,2018951.226355875,-0.01784051582217216,0.0367196649312973,-0.06439363956451416,2018951.219519875,146.9207458496094,134.8743133544922,-475.5311279296875,3
2023-02-18T22:07:45.837Z,210,2018951.265363875,-0.585693359375,0.8488311767578125,-0.1752777099609375,2018951.246374875,-0.1161124929785728,0.1469556242227554,-0.09826797991991043,2018951.239233875,146.9371490478516,134.9778594970703,-475.3877563476562,3
2023-02-18T22:07:45.863Z,211,2018951.285383875,-0.574554443359375,0.8731842041015625,-0.1690521240234375,2018951.266363875,-0.2162127196788788,0.278884083032608,-0.1208334788680077,2018951.258947875,146.9332275390625,134.9290161132812,-475.5658569335938,3
2023-02-18T22:07:45.877Z,212,2018951.305372875,-0.59906005859375,0.9063262939453125,-0.1589813232421875,2018951.286383875,-0.2498537749052048,0.3338967561721802,-0.1584096103906631,2018951.278662875,146.9433441162109,135.0781555175781,-475.6072387695312,3
2023-02-18T22:07:45.897Z,213,2018951.325391875,-0.6459808349609375,0.937896728515625,-0.134002685546875,2018951.306372875,-0.246621236205101,0.3464215993881226,-0.1720170378684998,2018951.298376875,147.0962219238281,135.2070159912109,-475.3805541992188,3
2023-02-18T22:07:45.917Z,214,2018951.345411875,-0.660064697265625,0.9345245361328125,-0.1632080078125,2018951.326391875,-0.3067215979099274,0.4610485732555389,-0.1738665997982025,2018951.318091875,147.0423431396484,135.2774658203125,-475.1886596679688,3
2023-02-18T22:07:45.939Z,215,2018951.365400875,-0.6230010986328125,0.935882568359375,-0.20245361328125,2018951.346411875,-0.3630977869033813,0.5254083871841431,-0.1715906709432602,2018951.337805875,147.3219604492188,135.3866424560547,-475.1873779296875,3
2023-02-18T22:07:45.957Z,216,2018951.385419875,-0.5712738037109375,0.9184722900390625,-0.205474853515625,2018951.366400875,-0.4200537502765656,0.5912081599235535,-0.2244046032428741,2018951.357519875,147.3603057861328,135.4766998291016,-475.1593627929688,3
2023-02-18T22:07:45.984Z,217,2018951.405439875,-0.466064453125,0.893402099609375,-0.190887451171875,2018951.386419875,-0.4739654362201691,0.5853976607322693,-0.3182466924190521,2018951.377234875,147.4892578125,135.3134613037109,-474.761962890625,3
2023-02-18T22:07:45.997Z,218,2018951.425428875,-0.3584136962890625,0.8897705078125,-0.2056732177734375,2018951.406439875,-0.5127711296081543,0.5317712426185608,-0.4872399568557739,2018951.396948875,147.5183258056641,135.4709625244141,-474.4830322265625,3
2023-02-18T22:07:46.024Z,219,2018951.445447875,-0.309906005859375,0.8519134521484375,-0.2086944580078125,2018951.426428875,-0.4817464053630829,0.3282234072685242,-0.7237763404846191,2018951.436377875,146.9940795898438,135.7746429443359,-474.1849060058594,3
2023-02-18T22:07:46.037Z,220,2018951.465467875,-0.44635009765625,0.7818756103515625,-0.2322540283203125,2018951.446447875,-0.4019876420497894,0.005676527973264456,-1.050657033920288,2018951.456122875,146.1450958251953,135.6747283935547,-473.9729614257812,3
2023-02-18T22:07:46.065Z,221,2018951.485456875,-0.4915771484375,0.8310546875,-0.157196044921875,2018951.466467875,-0.4646526277065277,-0.08331885933876038,-1.22943389415741,2018951.475836875,145.2875366210938,135.7123565673828,-473.6073608398438,3
2023-02-18T22:07:46.077Z,222,2018951.505476875,-0.6057281494140625,0.8769378662109375,-0.078460693359375,2018951.486456875,-0.4703046679496765,-0.1334020048379898,-1.425052404403687,2018951.495550875,144.2046508789062,135.5264434814453,-473.2441711425781,3
2023-02-18T22:07:46.104Z,223,2018951.525495875,-0.72222900390625,0.8547210693359375,-0.05987548828125,2018951.506476875,-0.5446369647979736,-0.02519616670906544,-1.543962597846985,2018951.515265875,143.1064300537109,135.6589965820312,-473.0619201660156,3
2023-02-18T22:07:46.117Z,224,2018951.545484875,-0.7445526123046875,0.9107666015625,-0.10516357421875,2018951.526495875,-0.7136611342430115,0.2875769138336182,-1.521336078643799,2018951.534979875,142.4059295654297,135.6107025146484,-472.6758422851562,3
2023-02-18T22:07:46.144Z,225,2018951.565504875,-0.680999755859375,0.9809722900390625,-0.08306884765625,2018951.546484875,-0.6408087611198425,0.198769822716713,-1.458777904510498,2018951.554693875,141.3263854980469,135.5153350830078,-472.1242370605469,3
2023-02-18T22:07:46.157Z,226,2018951.585493875,-0.682403564453125,0.975341796875,-0.0488128662109375,2018951.566504875,-0.6310954093933105,0.09756650030612946,-1.590253114700317,2018951.574408875,140.1848297119141,135.3011627197266,-471.9797058105469,3
2023-02-18T22:07:46.183Z,227,2018951.605512875,-0.73260498046875,0.9452362060546875,-0.0931549072265625,2018951.586493875,-0.7340769171714783,0.2227744907140732,-1.771075367927551,2018951.594122875,139.0410919189453,134.9250335693359,-471.5661010742188,3
2023-02-18T22:07:46.197Z,228,2018951.625532875,-0.762481689453125,0.9633026123046875,-0.1397552490234375,2018951.606512875,-0.7829757332801819,0.2564565539360046,-1.956929087638855,2018951.613836875,138.1102752685547,134.7083282470703,-471.12255859375,3
2023-02-18T22:07:46.219Z,229,2018951.645521875,-0.737762451171875,0.9769744873046875,-0.0668182373046875,2018951.626532875,-0.6359626054763794,0.01533847581595182,-2.202110528945923,2018951.633551875,136.6180725097656,134.5529327392578,-470.4979248046875,3
2023-02-18T22:07:46.237Z,230,2018951.665540875,-0.87396240234375,0.863983154296875,-0.0816192626953125,2018951.646521875,-0.5621134042739868,-0.06290119886398315,-2.519670963287354,2018951.653265875,134.9343566894531,133.9427337646484,-470.3391723632812,3
2023-02-18T22:07:46.265Z,231,2018951.685560875,-0.993865966796875,0.780487060546875,-0.003631591796875,2018951.666540875,-0.5435706377029419,0.06691858172416687,-2.751853466033936,2018951.672979875,133.4346618652344,133.5264434814453,-470.4006652832031,3
2023-02-18T22:07:46.277Z,232,2018951.705549875,-1.00579833984375,0.73486328125,-0.06231689453125,2018951.686560875,-0.5575303435325623,0.242509052157402,-2.947572708129883,2018951.692694875,131.5908660888672,132.8203430175781,-469.9654541015625,3
2023-02-18T22:07:46.311Z,233,2018951.725568875,-0.9759521484375,0.70166015625,-0.0104217529296875,2018951.706549875,-0.3763651251792908,0.1325780153274536,-3.125543117523193,2018951.712439875,130.1268310546875,131.8309326171875,-469.9788208007812,3
2023-02-18T22:07:46.317Z,234,2018951.745588875,-1.045333862304688,0.6139068603515625,0.0003814697265625,2018951.726568875,-0.1380816996097565,-0.2065896540880203,-3.321020126342773,2018951.732153875,128.5346832275391,130.840087890625,-469.8160400390625,3
2023-02-18T22:07:46.344Z,235,2018951.765577875,-1.106857299804688,0.4449005126953125,-0.0533294677734375,2018951.746588875,-0.1061277687549591,-0.2604254484176636,-3.591791152954102,2018951.751867875,126.7161102294922,129.4600219726562,-469.7106323242188,3
2023-02-18T22:07:46.357Z,236,2018951.785596875,-1.115478515625,0.412841796875,-0.02960205078125,2018951.766577875,-0.1770187169313431,-0.208073303103447,-3.73673152923584,2018951.771582875,124.7978210449219,127.9471130371094,-469.6397094726562,3
2023-02-18T22:07:46.384Z,237,2018951.805616875,-1.090728759765625,0.33056640625,-0.0390777587890625,2018951.786596875,-0.1672513037919998,-0.3069282472133636,-3.95482063293457,2018951.791296875,123.1147003173828,126.2363891601562,-469.5820007324219,3
2023-02-18T22:07:46.397Z,238,2018951.825605875,-1.137771606445312,0.228851318359375,0.021026611328125,2018951.806616875,-0.2420272827148438,-0.2297463715076447,-4.225607395172119,2018951.811010875,121.5894927978516,124.1925048828125,-469.6884155273438,3
2023-02-18T22:07:46.424Z,239,2018951.845625875,-1.14007568359375,0.069549560546875,-0.00189208984375,2018951.826605875,-0.2381861954927444,-0.1882564574480057,-4.444772720336914,2018951.830694875,120.1119079589844,122.0126342773438,-469.2041015625,3
2023-02-18T22:07:46.437Z,240,2018951.865644875,-1.04302978515625,-0.027862548828125,-0.0335845947265625,2018951.846625875,-0.3086931109428406,-0.0264811422675848,-4.650129795074463,2018951.850409875,118.975830078125,119.2551879882812,-469.4194946289062,3
2023-02-18T22:07:46.462Z,241,2018951.885633875,-0.97406005859375,-0.1138458251953125,-0.0399169921875,2018951.866644875,-0.2851342558860779,-0.004012851044535637,-4.804625988006592,2018951.870123875,117.9391937255859,116.6663818359375,-469.0473327636719,3
2023-02-18T22:07:46.477Z,242,2018951.905653875,-0.9622650146484375,-0.2606048583984375,0.001007080078125,2018951.886633875,-0.2373718023300171,-0.07004167139530182,-4.971598625183105,2018951.889837875,117.3035736083984,113.6113128662109,-469.00341796875,3
2023-02-18T22:07:46.505Z,243,2018951.925642875,-0.9955596923828125,-0.355133056640625,0.029693603515625,2018951.906653875,-0.2558818459510803,0.05939648300409317,-5.154232978820801,2018951.909552875,116.9773559570312,110.4196929931641,-468.8766784667969,3
2023-02-18T22:07:46.517Z,244,2018951.945650542,-0.886138916015625,-0.383056640625,-0.0417022705078125,2018951.926642875,-0.3117632269859314,0.2009951621294022,-5.204628467559814,2018951.929266875,117.0096893310547,107.0512847900391,-468.8646240234375,3
2023-02-18T22:07:46.544Z,245,2018951.965670542,-0.7795867919921875,-0.4911651611328125,-0.0452117919921875,2018951.946650542,-0.2540959119796753,0.1191080138087273,-5.24218225479126,2018951.948939542,117.148681640625,103.8079223632812,-468.9713134765625,3
2023-02-18T22:07:46.557Z,246,2018951.985659542,-0.795440673828125,-0.6090087890625,-0.0591583251953125,2018951.966670542,-0.2760491669178009,0.1318272650241852,-5.378122806549072,2018951.968653542,118.1482543945312,100.2076721191406,-468.734130859375,3
2023-02-18T22:07:46.580Z,247,2018952.005678542,-0.6787567138671875,-0.648590087890625,-0.03851318359375,2018951.986659542,-0.3848584592342377,0.2620808780193329,-5.270495891571045,2018951.988368542,119.0774078369141,96.67391967773438,-469.0283203125,3
2023-02-18T22:07:46.597Z,248,2018952.025698542,-0.62548828125,-0.7076873779296875,-0.0447845458984375,2018952.006678542,-0.4766507148742676,0.3050414025783539,-5.215220928192139,2018952.008082542,120.8647003173828,93.25135803222656,-469.0634155273438,3
2023-02-18T22:07:46.624Z,249,2018952.045687542,-0.5816497802734375,-0.7673492431640625,-0.0296173095703125,2018952.026698542,-0.5409513711929321,0.2965339422225952,-5.089973449707031,2018952.027796542,122.9391632080078,90.12338256835938,-469.5587768554688,3
2023-02-18T22:07:46.637Z,250,2018952.065706542,-0.5258636474609375,-0.7744903564453125,-0.0291900634765625,2018952.046687542,-0.6506624221801758,0.3792818188667297,-4.890863418579102,2018952.047511542,125.1679229736328,87.0147705078125,-469.7697448730469,3
2023-02-18T22:07:46.666Z,251,2018952.085726542,-0.4457550048828125,-0.787445068359375,-0.0045623779296875,2018952.066706542,-0.6443619132041931,0.3948972523212433,-4.752488136291504,2018952.067195542,127.5726318359375,84.309814453125,-470.0767211914062,3
2023-02-18T22:07:46.677Z,252,2018952.105715542,-0.375701904296875,-0.7820281982421875,-0.0157470703125,2018952.086726542,-0.7212740182876587,0.5517393350601196,-4.563797473907471,2018952.086909542,130.572265625,81.9423828125,-470.5355224609375,3
2023-02-18T22:07:46.704Z,253,2018952.125734542,-0.3516693115234375,-0.7960662841796875,-0.0537872314453125,2018952.106715542,-0.7002217173576355,0.6612916588783264,-4.387751579284668,2018952.106593542,133.4886627197266,79.49276733398438,-471.1773986816406,3
2023-02-18T22:07:46.717Z,254,2018952.145754542,-0.317291259765625,-0.8125457763671875,-0.051605224609375,2018952.126734542,-0.5435277223587036,0.6382952332496643,-4.204470634460449,2018952.126307542,136.4126281738281,77.51905822753906,-471.901611328125,3
2023-02-18T22:07:46.745Z,255,2018952.165743542,-0.2187957763671875,-0.8043060302734375,-0.067413330078125,2018952.146754542,-0.4943636655807495,0.7444049119949341,-3.920859575271606,2018952.146021542,139.4112396240234,75.50930786132812,-472.1451721191406,3
2023-02-18T22:07:46.757Z,256,2018952.185762542,-0.2029876708984375,-0.8051910400390625,-0.116180419921875,2018952.166743542,-0.3963185846805573,0.692620575428009,-3.636337280273438,2018952.165736542,141.9813690185547,73.78791809082031,-472.8689575195312,3
2023-02-18T22:07:46.779Z,257,2018952.205751542,-0.1107940673828125,-0.77392578125,-0.0737762451171875,2018952.186762542,-0.3052102327346802,0.6228968501091003,-3.35650897026062,2018952.185450542,144.5048217773438,72.38224792480469,-473.1686401367188,3
2023-02-18T22:07:46.797Z,258,2018952.225771542,-0.116729736328125,-0.75848388671875,-0.104217529296875,2018952.206751542,-0.2593910992145538,0.5255208015441895,-3.085878610610962,2018952.205165542,146.9507751464844,71.05853271484375,-473.0361938476562,3
2023-02-18T22:07:46.825Z,259,2018952.245791542,-0.079010009765625,-0.7806549072265625,-0.067626953125,2018952.226771542,-0.1833828687667847,0.4676162004470825,-2.782517194747925,2018952.224879542,149.3761291503906,70.22882080078125,-473.3980712890625,3
2023-02-18T22:07:46.837Z,260,2018952.265780542,-0.034088134765625,-0.7344818115234375,-0.095611572265625,2018952.246791542,-0.1907686144113541,0.5216730237007141,-2.502035856246948,2018952.244593542,151.2783355712891,69.09906005859375,-473.6768188476562,3
2023-02-18T22:07:46.863Z,261,2018952.285799542,0.00982666015625,-0.79052734375,-0.10888671875,2018952.266780542,-0.1646131873130798,0.5682405233383179,-2.220027208328247,2018952.264308542,153.244384765625,68.35810852050781,-473.7415161132812,3
2023-02-18T22:07:46.877Z,262,2018952.305819542,0.0882415771484375,-0.7837982177734375,-0.1425018310546875,2018952.286799542,-0.1677791476249695,0.5870837569236755,-1.978050947189331,2018952.284022542,154.8340454101562,67.72837829589844,-473.8005065917969,3
2023-02-18T22:07:46.900Z,263,2018952.325808542,0.1645660400390625,-0.7383575439453125,-0.1214599609375,2018952.306819542,-0.2163117974996567,0.6064693927764893,-1.823876023292542,2018952.303736542,156.3202362060547,67.10600280761719,-473.9830932617188,3
2023-02-18T22:07:46.917Z,264,2018952.345827542,0.1420135498046875,-0.774749755859375,-0.172607421875,2018952.326808542,-0.09602773189544678,0.4450789391994476,-1.712711930274963,2018952.323481542,157.7817687988281,66.53968811035156,-473.9480285644531,3
2023-02-18T22:07:46.944Z,265,2018952.365847542,0.169403076171875,-0.799652099609375,-0.13665771484375,2018952.346827542,-0.1370460093021393,0.6114673614501953,-1.575406789779663,2018952.343196542,159.2638854980469,66.38368225097656,-474.2003173828125,3
2023-02-18T22:07:46.957Z,266,2018952.385836542,0.279296875,-0.7697601318359375,-0.153564453125,2018952.366847542,-0.2480739802122116,0.7051824331283569,-1.42297089099884,2018952.362879542,160.5144653320312,66.49411010742188,-473.9447021484375,3
2023-02-18T22:07:46.985Z,267,2018952.405855542,0.337432861328125,-0.775299072265625,-0.1688079833984375,2018952.386836542,-0.1758024543523788,0.4908285737037659,-1.334572076797485,2018952.382594542,161.6176300048828,66.39590454101562,-474.1861572265625,3
2023-02-18T22:07:46.997Z,268,2018952.425875542,0.31488037109375,-0.812591552734375,-0.1920928955078125,2018952.406855542,-0.1857184618711472,0.4025844633579254,-1.265416383743286,2018952.402308542,162.5967102050781,66.37770080566406,-474.3269653320312,3
2023-02-18T22:07:47.024Z,269,2018952.445864542,0.3663330078125,-0.814178466796875,-0.1533203125,2018952.426875542,-0.2757109403610229,0.4625138342380524,-1.17136824131012,2018952.422022542,164.1344757080078,66.53396606445312,-474.4181213378906,3
2023-02-18T22:07:47.037Z,270,2018952.465883542,0.4462127685546875,-0.7903289794921875,-0.1718597412109375,2018952.446864542,-0.3327979147434235,0.4986388385295868,-1.055112242698669,2018952.441737542,164.8229217529297,66.95773315429688,-474.3890991210938,3
2023-02-18T22:07:47.060Z,271,2018952.485903542,0.481842041015625,-0.7913055419921875,-0.1363983154296875,2018952.466883542,-0.2936209738254547,0.3825327157974243,-0.9442999362945557,2018952.461421542,165.9049682617188,67.19720458984375,-474.641845703125,3
2023-02-18T22:07:47.077Z,272,2018952.505892542,0.4502105712890625,-0.811370849609375,-0.166717529296875,2018952.486903542,-0.3111333847045898,0.4587635695934296,-0.8254486322402954,2018952.481135542,166.6589508056641,67.28215026855469,-474.7986145019531,3
2023-02-18T22:07:47.104Z,273,2018952.525911542,0.5543060302734375,-0.80487060546875,-0.2047882080078125,2018952.506892542,-0.3723717033863068,0.5949469804763794,-0.7667227387428284,2018952.500849542,167.3899841308594,67.6573486328125,-474.9336547851562,3
2023-02-18T22:07:47.117Z,274,2018952.545900542,0.6751708984375,-0.7552032470703125,-0.1595611572265625,2018952.526911542,-0.28511643409729,0.466683030128479,-0.7103180289268494,2018952.520564542,168.2429351806641,68.20976257324219,-475.3004760742188,3
2023-02-18T22:07:47.144Z,275,2018952.565920542,0.687042236328125,-0.78424072265625,-0.1317138671875,2018952.546900542,-0.2037501931190491,0.2996096014976501,-0.6152312159538269,2018952.540278542,168.6722717285156,68.52699279785156,-475.5200805664062,3
2023-02-18T22:07:47.157Z,276,2018952.585939542,0.6353912353515625,-0.79730224609375,-0.13800048828125,2018952.566920542,-0.3165915310382843,0.4921710789203644,-0.5494852066040039,2018952.559992542,169.4423217773438,68.48951721191406,-475.5449523925781,3
2023-02-18T22:07:47.183Z,277,2018952.605928542,0.7227020263671875,-0.7806396484375,-0.2193145751953125,2018952.586939542,-0.4039714336395264,0.6758093237876892,-0.4419997930526733,2018952.579707542,169.8682708740234,68.84617614746094,-475.6642761230469,3
2023-02-18T22:07:47.197Z,278,2018952.625948542,0.8232574462890625,-0.7943572998046875,-0.165252685546875,2018952.606928542,-0.3120652139186859,0.5415921807289124,-0.3814376294612885,2018952.599452542,170.3625793457031,69.10208129882812,-475.5709838867188,3
2023-02-18T22:07:47.220Z,279,2018952.645968542,0.8311920166015625,-0.8260955810546875,-0.193511962890625,2018952.626948542,-0.2278190553188324,0.3860912322998047,-0.3299608528614044,2018952.619166542,170.5165710449219,69.4066162109375,-475.8327026367188,3
2023-02-18T22:07:47.237Z,280,2018952.665957542,0.9600830078125,-0.856719970703125,-0.13763427734375,2018952.646968542,-0.3195617496967316,0.5874826908111572,-0.2395012676715851,2018952.638911542,171.1505584716797,69.25534057617188,-475.68994140625,3
2023-02-18T22:07:47.265Z,281,2018952.685976542,0.9786834716796875,-0.91790771484375,-0.2252197265625,2018952.666957542,-0.3063354194164276,0.7134898900985718,-0.2816942632198334,2018952.658625542,171.5008850097656,69.65623474121094,-475.95458984375,3
2023-02-18T22:07:47.278Z,282,2018952.705996542,1.07501220703125,-0.981475830078125,-0.2977752685546875,2018952.686976542,-0.1693520098924637,0.5850216746330261,-0.320686399936676,2018952.678340542,171.9016265869141,69.71736145019531,-475.8974609375,3
2023-02-18T22:07:47.309Z,283,2018952.725985542,1.221099853515625,-1.014434814453125,-0.267486572265625,2018952.706996542,-0.1456352323293686,0.5854522585868835,-0.3960208296775818,2018952.698054542,172.4921569824219,69.6505126953125,-475.6802062988281,3
2023-02-18T22:07:47.318Z,284,2018952.746004542,1.20318603515625,-1.122177124023438,-0.2364654541015625,2018952.726985542,-0.1543480306863785,0.5810127854347229,-0.5414028167724609,2018952.717738542,172.7474975585938,69.83506774902344,-475.7027893066406,3
2023-02-18T22:07:47.344Z,285,2018952.766024542,1.185562133789062,-1.126190185546875,-0.2667999267578125,2018952.747004542,-0.06425409018993378,0.4580692946910858,-0.6205045580863953,2018952.737452542,173.3096618652344,70.05343627929688,-475.6044616699219,3
2023-02-18T22:07:47.357Z,286,2018952.786013542,1.153671264648438,-1.121337890625,-0.2651824951171875,2018952.767024542,-0.1048569083213806,0.4865305125713348,-0.7096562385559082,2018952.776911542,174.342041015625,70.26632690429688,-475.4100952148438,3
2023-02-18T22:07:47.385Z,287,2018952.806032542,1.155975341796875,-1.119888305664062,-0.183349609375,2018952.787013542,0.01631931774318218,0.3749805390834808,-0.7469295859336853,2018952.796626542,174.9469451904297,70.38446044921875,-475.061767578125,3
2023-02-18T22:07:47.397Z,288,2018952.826021542,1.098236083984375,-1.062835693359375,-0.1383819580078125,2018952.807032542,-0.004480502102524042,0.371836394071579,-0.7406916618347168,2018952.816340542,175.7112579345703,70.71199035644531,-474.8247375488281,3
2023-02-18T22:07:47.422Z,289,2018952.846041542,0.9594268798828125,-1.062423706054688,-0.1311492919921875,2018952.827021542,-0.03772341087460518,0.4414445161819458,-0.7144222259521484,2018952.836054542,175.9598846435547,71.08711242675781,-474.7384948730469,3
2023-02-18T22:07:47.437Z,290,2018952.866060542,0.864532470703125,-1.029037475585938,-0.1451416015625,2018952.847041542,0.06330360472202301,0.3964581191539764,-0.5792641639709473,2018952.855769542,176.6806945800781,71.06407165527344,-474.4176025390625,3
2023-02-18T22:07:47.460Z,291,2018952.886049542,0.8946685791015625,-0.96002197265625,-0.181304931640625,2018952.867060542,0.09760298579931259,0.3485451936721802,-0.3953246772289276,2018952.875483542,176.9421234130859,71.3165283203125,-474.2926635742188,3
2023-02-18T22:07:47.477Z,292,2018952.906069542,0.8857574462890625,-0.8616790771484375,-0.0759429931640625,2018952.887049542,-0.1495673805475235,0.2201313078403473,-0.2800617516040802,2018952.895197542,177.1529693603516,70.9656982421875,-473.8699035644531,3
2023-02-18T22:07:47.504Z,293,2018952.926088542,0.681488037109375,-0.88677978515625,-0.0506744384765625,2018952.907069542,0.04313974827528,-0.09578324854373932,-0.1134959384799004,2018952.914912542,177.6503295898438,71.19430541992188,-474.1099853515625,3
2023-02-18T22:07:47.517Z,294,2018952.94604925,0.5592041015625,-0.8714752197265625,-0.091094970703125,2018952.927088542,-0.02989265136420727,0.02955789119005203,0.1295657157897949,2018952.93459825,177.7012176513672,71.14312744140625,-474.1072998046875,3
2023-02-18T22:07:47.545Z,295,2018952.96606925,0.5622100830078125,-0.835968017578125,-0.0833740234375,2018952.94704925,0.05625927820801735,0.0825931504368782,0.3229492902755737,2018952.95431325,177.3371124267578,70.59664916992188,-473.9075317382812,3
2023-02-18T22:07:47.557Z,296,2018952.98608825,0.6245574951171875,-0.7249908447265625,-0.009368896484375,2018952.96706925,-0.02271196991205215,0.1959862858057022,0.5645344853401184,2018952.97402725,177.2876129150391,70.19676208496094,-473.656494140625,3
2023-02-18T22:07:47.585Z,297,2018953.00607725,0.54638671875,-0.7243194580078125,-0.026641845703125,2018952.98708825,-0.1527168452739716,0.2826063930988312,0.6255773305892944,2018952.99374125,176.8997650146484,69.74700927734375,-473.6623229980469,3
2023-02-18T22:07:47.597Z,298,2018953.02609725,0.4009857177734375,-0.665557861328125,0.0198822021484375,2018953.00707725,0.1216324269771576,-0.003518035868182778,0.7596765756607056,2018953.01345625,176.6830902099609,69.29531860351562,-473.459228515625,3
2023-02-18T22:07:47.623Z,299,2018953.04611725,0.367523193359375,-0.6279144287109375,0.0687255859375,2018953.02709725,0.2899260818958282,-0.05671760812401772,0.8439078330993652,2018953.03317025,176.0142822265625,68.68229675292969,-473.4500122070312,3
2023-02-18T22:07:47.637Z,300,2018953.06610625,0.532470703125,-0.6314544677734375,0.05743408203125,2018953.04711725,0.3180964887142181,0.09726050496101379,0.9697964787483215,2018953.05291525,175.3237762451172,68.08514404296875,-473.262451171875,3
2023-02-18T22:07:47.660Z,301,2018953.08612525,0.3430633544921875,-0.606201171875,0.01983642578125,2018953.06710625,0.2037211656570435,0.3000948429107666,0.9277377128601074,2018953.07262925,174.8190155029297,67.28372192382812,-472.71435546875,3
2023-02-18T22:07:47.677Z,302,2018953.10614525,0.369720458984375,-0.5638427734375,0.051483154296875,2018953.08712525,0.3590593636035919,0.2711329758167267,1.064850330352783,2018953.09234425,174.5271301269531,66.96441650390625,-472.6685180664062,3
2023-02-18T22:07:47.704Z,303,2018953.12613425,0.475433349609375,-0.5339508056640625,0.1326904296875,2018953.10714525,0.4311455488204956,0.4076575338840485,1.138016104698181,2018953.11205825,173.9783172607422,66.13545227050781,-472.0975646972656,3
2023-02-18T22:07:47.718Z,304,2018953.14615325,0.3189544677734375,-0.582672119140625,0.082183837890625,2018953.12713425,0.5969758033752441,0.2303415983915329,1.082716345787048,2018953.13180325,173.6023254394531,65.59651184082031,-471.6713256835938,3
2023-02-18T22:07:47.744Z,305,2018953.16614225,0.310150146484375,-0.611328125,0.0623016357421875,2018953.14715325,0.6509018540382385,0.2478990107774734,1.22869861125946,2018953.15151725,172.6759185791016,64.84892272949219,-470.88818359375,3
2023-02-18T22:07:47.757Z,306,2018953.18616225,0.327911376953125,-0.6118621826171875,-0.023651123046875,2018953.16714225,0.4880333244800568,0.506363570690155,1.359077095985413,2018953.17123125,172.3454132080078,64.07928466796875,-470.3892211914062,3
2023-02-18T22:07:47.785Z,307,2018953.20618125,0.42169189453125,-0.5651092529296875,-0.0059356689453125,2018953.18716225,0.3937608897686005,0.6174014210700989,1.393899321556091,2018953.19094625,171.2618103027344,63.20683288574219,-470.1112365722656,3
2023-02-18T22:07:47.797Z,308,2018953.22617025,0.3473968505859375,-0.495880126953125,0.0056304931640625,2018953.20718125,0.4649213552474976,0.4520319104194641,1.399577379226685,2018953.21066025,170.2401428222656,62.69287109375,-469.4407958984375,3
2023-02-18T22:07:47.823Z,309,2018953.24619025,0.467681884765625,-0.6573638916015625,0.05810546875,2018953.22717025,0.4951929748058319,0.1676992475986481,1.602664470672607,2018953.23037525,169.3779907226562,62.0306396484375,-469.0240478515625,3
2023-02-18T22:07:47.837Z,310,2018953.26620925,0.169830322265625,-0.634979248046875,-0.0171356201171875,2018953.24719025,0.4737779498100281,0.06379789113998413,1.64438533782959,2018953.25008925,168.490478515625,61.37628173828125,-468.6514587402344,3
2023-02-18T22:07:47.860Z,311,2018953.28619825,0.237548828125,-0.620452880859375,0.017425537109375,2018953.26720925,0.2873774468898773,0.2674913704395294,1.850783705711365,2018953.26980325,167.4489288330078,60.67646789550781,-468.2054748535156,3
2023-02-18T22:07:47.877Z,312,2018953.30621825,0.3225250244140625,-0.452728271484375,-0.0036468505859375,2018953.28719825,0.1690960824489594,0.619556725025177,1.875295519828796,2018953.28951825,165.7913208007812,59.73968505859375,-468.1410522460938,3
2023-02-18T22:07:47.901Z,313,2018953.32623725,0.5304107666015625,-0.3978424072265625,-0.0467376708984375,2018953.30721825,0.3850097358226776,0.3420966267585754,1.661638379096985,2018953.30923225,164.5902252197266,59.51022338867188,-467.481201171875,3
2023-02-18T22:07:47.917Z,314,2018953.34622625,0.387542724609375,-0.4818267822265625,0.0537109375,2018953.32723725,0.6598492860794067,-0.09064148366451263,1.233075261116028,2018953.32894625,163.3184204101562,59.18241882324219,-467.0467529296875,3
2023-02-18T22:07:47.944Z,315,2018953.36624625,0.2845458984375,-0.601593017578125,0.0224151611328125,2018953.34722625,0.607075572013855,-0.185857743024826,0.8987910151481628,2018953.34866125,162.7293243408203,58.58734130859375,-466.5795288085938,3
2023-02-18T22:07:47.957Z,316,2018953.38626525,0.40594482421875,-0.664703369140625,0.028778076171875,2018953.36724625,0.3500365614891052,0.04990310966968536,0.566368579864502,2018953.36837525,162.0010833740234,58.62669372558594,-466.242919921875,3
2023-02-18T22:07:47.983Z,317,2018953.40625425,0.6110076904296875,-0.6702880859375,-0.05950927734375,2018953.38726525,0.1467569470405579,0.08232762664556503,0.1830145567655563,2018953.38808925,161.8406219482422,58.63407897949219,-466.0390014648438,3
2023-02-18T22:07:47.997Z,318,2018953.42627425,0.5500335693359375,-0.78717041015625,-0.051788330078125,2018953.40725425,0.1132698357105255,-0.3881407976150513,-0.2991813719272614,2018953.40777325,161.9126129150391,58.67817687988281,-466.0410766601562,3
2023-02-18T22:07:48.020Z,319,2018953.44626325,0.315948486328125,-0.8900604248046875,-0.0357666015625,2018953.42727425,-0.121018297970295,-0.5620460510253906,-0.6215341091156006,2018953.42745725,162.5434417724609,58.93690490722656,-466.1398315429688,3
2023-02-18T22:07:48.038Z,320,2018953.46628325,0.434478759765625,-0.7940521240234375,-0.0337066650390625,2018953.44726325,-0.4645767211914062,-0.222063422203064,-0.7350884079933167,2018953.44717125,163.0262908935547,59.09358215332031,-466.0472717285156,3
2023-02-18T22:07:48.065Z,321,2018953.48630225,0.46160888671875,-0.746429443359375,-0.1230316162109375,2018953.46728325,-0.5643320679664612,-0.2312002032995224,-0.9314895868301392,2018953.46688625,163.6213989257812,59.48809814453125,-466.5680541992188,3
2023-02-18T22:07:48.078Z,322,2018953.50629125,0.52008056640625,-0.721649169921875,-0.0532684326171875,2018953.48730225,-0.5338186621665955,-0.4424756765365601,-1.134571552276611,2018953.48660025,164.1095428466797,60.09063720703125,-467.0294189453125,3
2023-02-18T22:07:48.104Z,323,2018953.52631125,0.47259521484375,-0.7363433837890625,-0.0634307861328125,2018953.50729125,-0.582122802734375,-0.4880391657352448,-1.277058482170105,2018953.50631525,165.0764312744141,60.2923583984375,-467.4412841796875,3
2023-02-18T22:07:48.118Z,324,2018953.54633025,0.3440093994140625,-0.6715240478515625,-0.0618438720703125,2018953.52731125,-0.5015280842781067,-0.7208724021911621,-1.357815861701965,2018953.52602925,166.0354919433594,60.77346801757812,-467.8435668945312,3
2023-02-18T22:07:48.144Z,325,2018953.56631925,0.511932373046875,-0.5908660888671875,0.03643798828125,2018953.54733025,-0.6487657427787781,-0.7046356797218323,-1.556577444076538,2018953.54574325,166.7729339599609,61.446044921875,-468.479248046875,3
2023-02-18T22:07:48.157Z,326,2018953.58633925,0.49554443359375,-0.727020263671875,0.041168212890625,2018953.56731925,-0.8369044661521912,-0.5468947887420654,-1.455394864082336,2018953.56548825,167.6319580078125,61.75636291503906,-468.8377075195312,3
2023-02-18T22:07:48.185Z,327,2018953.60635825,0.2591094970703125,-0.6773529052734375,0.015106201171875,2018953.58733925,-0.8848341703414917,-0.4382322132587433,-1.398106813430786,2018953.58520225,168.4329376220703,62.36404418945312,-469.6808776855469,3
2023-02-18T22:07:48.197Z,328,2018953.62634725,0.526275634765625,-0.552764892578125,-0.0563507080078125,2018953.60735825,-0.9944706559181213,-0.3180765211582184,-1.419692039489746,2018953.60491725,169.5992431640625,63.14964294433594,-470.3674621582031,3
2023-02-18T22:07:48.219Z,329,2018953.64636725,0.557037353515625,-0.540771484375,-0.10870361328125,2018953.62734725,-0.9542295336723328,-0.3871226906776428,-1.495630145072937,2018953.62466225,170.2378082275391,63.69757080078125,-470.8776245117188,3
2023-02-18T22:07:48.238Z,330,2018953.66638625,0.499664306640625,-0.646392822265625,-0.0669097900390625,2018953.64736725,-0.927548885345459,-0.3795936703681946,-1.271266341209412,2018953.64437625,170.9800109863281,64.25877380371094,-471.7421264648438,3
2023-02-18T22:07:48.264Z,331,2018953.68637525,0.3565521240234375,-0.65570068359375,-0.069091796875,2018953.66738625,-0.7313434481620789,-0.5682043433189392,-1.390880823135376,2018953.66406025,171.8532867431641,64.82614135742188,-472.3328552246094,3
2023-02-18T22:07:48.278Z,332,2018953.70639525,0.577117919921875,-0.5400543212890625,-0.090576171875,2018953.68737525,-0.8053228855133057,-0.2242757081985474,-1.272417664527893,2018953.68374425,172.3905639648438,65.38615417480469,-472.9209899902344,3
2023-02-18T22:07:48.302Z,333,2018953.72641425,0.6353912353515625,-0.6473846435546875,-0.0700531005859375,2018953.70739525,-0.7432246208190918,0.01905971206724644,-1.077893376350403,2018953.70345825,173.261474609375,65.62786865234375,-473.4560241699219,3
2023-02-18T22:07:48.318Z,334,2018953.74640325,0.484130859375,-0.6783905029296875,-0.17718505859375,2018953.72741425,-0.4908615946769714,-0.1183032095432281,-1.087648272514343,2018953.72317225,174.0201721191406,66.28407287597656,-474.1244201660156,3
2023-02-18T22:07:48.343Z,335,2018953.76642325,0.6951904296875,-0.69659423828125,-0.2066650390625,2018953.74740325,-0.4644494354724884,-0.07923144102096558,-0.9871088862419128,2018953.74288725,174.8074188232422,66.68594360351562,-474.4138488769531,3
2023-02-18T22:07:48.358Z,336,2018953.78641225,0.559539794921875,-0.596435546875,-0.2730255126953125,2018953.76742325,-0.746960461139679,0.4890351891517639,-0.9027788639068604,2018953.76260125,175.1443634033203,67.26058959960938,-474.6895446777344,3
2023-02-18T22:07:48.380Z,337,2018953.80643125,0.76580810546875,-0.618072509765625,-0.146881103515625,2018953.78741225,-0.3614540696144104,-0.04885862022638321,-0.7638816833496094,2018953.78234625,175.6715545654297,67.49737548828125,-475.1180419921875,3
2023-02-18T22:07:48.398Z,338,2018953.82645125,0.7388763427734375,-0.67987060546875,-0.166717529296875,2018953.80743125,-0.244365006685257,-0.01288863457739353,-0.6707538962364197,2018953.80206025,176.0473785400391,67.91062927246094,-475.46630859375,3
2023-02-18T22:07:48.424Z,339,2018953.84644025,0.5339813232421875,-0.6832427978515625,-0.2447662353515625,2018953.82745125,-0.1910586357116699,0.06264074146747589,-0.6225943565368652,2018953.82177525,176.2894439697266,68.19779968261719,-475.54443359375,3
2023-02-18T22:07:48.438Z,340,2018953.86646025,0.7549591064453125,-0.5907440185546875,-0.228790283203125,2018953.84744025,0.0287442971020937,-0.3821039497852325,-0.4938874840736389,2018953.84148925,176.7815704345703,68.56271362304688,-475.7601318359375,3
2023-02-18T22:07:48.466Z,341,2018953.88647925,0.6325836181640625,-0.5919647216796875,-0.2493133544921875,2018953.86746025,-0.1426972299814224,-0.224811002612114,-0.5457035303115845,2018953.86120325,176.6300964355469,68.99763488769531,-475.8162231445312,3
2023-02-18T22:07:48.478Z,342,2018953.90646825,0.73895263671875,-0.6821136474609375,-0.134918212890625,2018953.88747925,-0.2376652806997299,-0.1391344517469406,-0.5423071980476379,2018953.88091825,177.0058441162109,69.39373779296875,-476.1196899414062,3
2023-02-18T22:07:48.505Z,343,2018953.92648825,0.621551513671875,-0.553955078125,-0.2265625,2018953.90746825,-0.3645012676715851,0.1364449262619019,-0.3809982240200043,2018953.90066325,177.2022399902344,69.9698486328125,-476.2920532226562,3
2023-02-18T22:07:48.518Z,344,2018953.946482,0.69769287109375,-0.58642578125,-0.135894775390625,2018953.92748825,-0.08843958377838135,-0.1664310544729233,-0.2913697957992554,2018953.92037725,177.4190521240234,70.49899291992188,-476.3729858398438,3
2023-02-18T22:07:48.544Z,345,2018953.966471,0.6142425537109375,-0.6265411376953125,-0.1259765625,2018953.947482,0.09248971939086914,-0.3056065142154694,-0.3139342367649078,2018953.940066,177.611572265625,70.86363220214844,-476.4258422851562,3
2023-02-18T22:07:48.558Z,346,2018953.986491,0.683258056640625,-0.6089324951171875,-0.196807861328125,2018953.967471,0.004283694550395012,-0.09071046113967896,-0.172505721449852,2018953.959781,177.5803375244141,71.20050048828125,-476.321044921875,3
2023-02-18T22:07:48.585Z,347,2018954.00651,0.7608489990234375,-0.61346435546875,-0.1486968994140625,2018953.987491,-0.1818696707487106,0.1147329732775688,-0.1488083899021149,2018953.979495,177.6614685058594,71.53944396972656,-476.5355224609375,3
2023-02-18T22:07:48.598Z,348,2018954.026499,0.678802490234375,-0.615020751953125,-0.2043914794921875,2018954.00751,-0.1047578379511833,0.07747402042150497,0.0008420915110036731,2018953.999209,177.4150390625,71.93746948242188,-476.6217651367188,3
2023-02-18T22:07:48.623Z,349,2018954.046519,0.6923675537109375,-0.628204345703125,-0.0961456298828125,2018954.027499,0.196639284491539,-0.1942016929388046,0.07867803424596786,2018954.018924,177.4393310546875,72.31581115722656,-476.3695678710938,3
2023-02-18T22:07:48.638Z,350,2018954.066508,0.6592864990234375,-0.702301025390625,-0.1790618896484375,2018954.047519,0.1797005236148834,-0.1262886971235275,0.04363323003053665,2018954.038638,177.2926788330078,72.11967468261719,-476.5338134765625,3
2023-02-18T22:07:48.660Z,351,2018954.086527,0.686767578125,-0.6359710693359375,-0.1988372802734375,2018954.067508,0.008293882943689823,0.05074786394834518,0.102360725402832,2018954.058383,177.0687561035156,72.02378845214844,-476.5310668945312,3
2023-02-18T22:07:48.678Z,352,2018954.106547,0.6828155517578125,-0.6653900146484375,-0.1549224853515625,2018954.087527,-0.126705214381218,0.2102672159671783,0.111904963850975,2018954.078097,177.1476898193359,72.138427734375,-476.4352111816406,3
2023-02-18T22:07:48.704Z,353,2018954.126536,0.672943115234375,-0.7274322509765625,-0.159149169921875,2018954.107547,-0.03727253526449203,0.1536857038736343,0.103718675673008,2018954.117526,176.8405456542969,71.95968627929688,-476.1213989257812,3
2023-02-18T22:07:48.718Z,354,2018954.146555,0.754425048828125,-0.6823577880859375,-0.133270263671875,2018954.127536,0.1003244742751122,0.006877613253891468,0.1266215890645981,2018954.13724,176.9064636230469,72.13941955566406,-476.2986145019531,3
2023-02-18T22:07:48.745Z,355,2018954.166575,0.64453125,-0.773040771484375,-0.150665283203125,2018954.147555,0.1053874120116234,0.001122256042435765,0.0652325302362442,2018954.156955,176.8348541259766,72.12335205078125,-476.3072204589844,3
2023-02-18T22:07:48.758Z,356,2018954.186564,0.6994171142578125,-0.75946044921875,-0.1468963623046875,2018954.167575,0.1188669949769974,-0.03094912692904472,0.1616693288087845,2018954.176669,176.9042663574219,72.03471374511719,-475.8620910644531,3
2023-02-18T22:07:48.783Z,357,2018954.206583,0.730987548828125,-0.7777099609375,-0.192718505859375,2018954.187564,-0.007244863547384739,0.1068223193287849,0.188700407743454,2018954.196383,176.7417907714844,71.898681640625,-476.0177612304688,3
2023-02-18T22:07:48.798Z,358,2018954.226603,0.7288055419921875,-0.7290802001953125,-0.1751861572265625,2018954.207583,0.04435335099697113,-0.02023389935493469,0.3277637660503387,2018954.216098,176.4415283203125,71.77183532714844,-476.14013671875,3
2023-02-18T22:07:48.820Z,359,2018954.246592,0.740081787109375,-0.7723388671875,-0.090423583984375,2018954.227603,0.1102002710103989,-0.1792637705802917,0.300480991601944,2018954.235812,176.0039215087891,71.74118041992188,-476.2277221679688,3
2023-02-18T22:07:48.838Z,360,2018954.266612,0.683013916015625,-0.7816925048828125,-0.220977783203125,2018954.247592,0.1009263470768929,-0.1702670753002167,0.2563465535640717,2018954.255527,175.9768524169922,71.45027160644531,-475.9354858398438,3
2023-02-18T22:07:48.865Z,361,2018954.286631,0.679840087890625,-0.7697296142578125,-0.221893310546875,2018954.267612,0.1178102567791939,-0.2844043076038361,0.3176360130310059,2018954.275271,175.7130126953125,71.79682922363281,-476.1981201171875,3
2023-02-18T22:07:48.878Z,362,2018954.30662,0.75006103515625,-0.730499267578125,-0.1837005615234375,2018954.287631,0.01959846913814545,-0.235824778676033,0.3866888582706451,2018954.294986,175.2185974121094,71.72813415527344,-476.3107299804688,3
2023-02-18T22:07:48.900Z,363,2018954.32664,0.7374725341796875,-0.8070526123046875,-0.1442108154296875,2018954.30762,0.03332866355776787,-0.3585773408412933,0.2864051163196564,2018954.3147,175.0826110839844,71.75123596191406,-476.3228149414062,3
2023-02-18T22:07:48.918Z,364,2018954.346659,0.7423553466796875,-0.7995147705078125,-0.2366943359375,2018954.32764,0.09692148864269257,-0.4392450153827667,0.2940268218517303,2018954.334415,174.8272094726562,71.7120361328125,-476.3152160644531,3
2023-02-18T22:07:48.944Z,365,2018954.366648,0.7125091552734375,-0.8009796142578125,-0.18280029296875,2018954.347659,-0.009777795523405075,-0.340745598077774,0.253061830997467,2018954.354129,174.4126586914062,71.64155578613281,-476.3247985839844,3
2023-02-18T22:07:48.958Z,366,2018954.386668,0.810394287109375,-0.8036956787109375,-0.252349853515625,2018954.367648,0.03254249691963196,-0.4411398470401764,0.3617744445800781,2018954.373843,174.0310974121094,71.82701110839844,-476.393310546875,3
2023-02-18T22:07:48.986Z,367,2018954.406657,0.84161376953125,-0.785247802734375,-0.2202301025390625,2018954.387668,0.03144367784261703,-0.5587999224662781,0.3044547140598297,2018954.393558,173.6645202636719,71.637451171875,-476.8266296386719,3
2023-02-18T22:07:48.998Z,368,2018954.426676,0.7699737548828125,-0.8318634033203125,-0.241546630859375,2018954.407657,0.08255133777856827,-0.6633177995681763,0.2060519605875015,2018954.413302,173.2435302734375,71.7490234375,-476.6229553222656,3
2023-02-18T22:07:49.023Z,369,2018954.446696,0.6932373046875,-0.8236846923828125,-0.2004852294921875,2018954.427676,0.06758410483598709,-0.5396517515182495,0.1671852618455887,2018954.433017,173.0432586669922,71.62538146972656,-476.8359985351562,3
2023-02-18T22:07:49.038Z,370,2018954.466685,0.7189788818359375,-0.8348236083984375,-0.2139739990234375,2018954.447696,0.07531765848398209,-0.4000794887542725,0.2357688546180725,2018954.452731,172.6935272216797,71.90927124023438,-477.119873046875,3
2023-02-18T22:07:49.060Z,371,2018954.486704,0.867034912109375,-0.7548065185546875,-0.274078369140625,2018954.467685,0.149102658033371,-0.4470858871936798,0.247933104634285,2018954.472446,172.2217559814453,71.81547546386719,-477.0489501953125,3
2023-02-18T22:07:49.078Z,372,2018954.506724,0.7782440185546875,-0.835968017578125,-0.26129150390625,2018954.487704,0.1956736296415329,-0.5723711252212524,0.104527473449707,2018954.49216,172.0974273681641,71.58998107910156,-477.0414733886719,3
2023-02-18T22:07:49.105Z,373,2018954.526713,0.7602386474609375,-0.8151092529296875,-0.2330322265625,2018954.507724,0.1758155077695847,-0.40205317735672,0.02301477082073689,2018954.511874,171.8693695068359,71.82720947265625,-477.107666015625,3
2023-02-18T22:07:49.118Z,374,2018954.546732,0.723419189453125,-0.803680419921875,-0.2632293701171875,2018954.527713,0.2957842648029327,-0.3555293381214142,0.0461278147995472,2018954.531589,171.9214477539062,71.93923950195312,-477.0271606445312,3
2023-02-18T22:07:49.145Z,375,2018954.566752,0.826507568359375,-0.76141357421875,-0.2958221435546875,2018954.547732,0.3653476238250732,-0.2774694263935089,0.06445915251970291,2018954.551303,171.8138732910156,71.88796997070312,-476.7933959960938,3
2023-02-18T22:07:49.158Z,376,2018954.586741,0.7916107177734375,-0.802398681640625,-0.3427276611328125,2018954.567752,0.3998837471008301,-0.3477481007575989,0.00307195633649826,2018954.571017,171.7690734863281,71.8511962890625,-476.5088500976562,3
2023-02-18T22:07:49.183Z,377,2018954.60676,0.7310333251953125,-0.82672119140625,-0.3204498291015625,2018954.587741,0.3121562898159027,-0.3290276825428009,0.04034103080630302,2018954.590762,171.8025512695312,71.84146118164062,-476.6021728515625,3
2023-02-18T22:07:49.198Z,378,2018954.62678,0.76239013671875,-0.8211212158203125,-0.319732666015625,2018954.60776,0.2366588860750198,-0.2312236279249191,0.1581598073244095,2018954.610477,171.446044921875,71.69471740722656,-476.4459228515625,3
2023-02-18T22:07:49.220Z,379,2018954.646769,0.8474578857421875,-0.7786865234375,-0.3253021240234375,2018954.62778,0.2226333469152451,-0.2143905907869339,0.2217869907617569,2018954.630191,171.1348571777344,71.54464721679688,-476.2223510742188,3
2023-02-18T22:07:49.238Z,380,2018954.666789,0.83197021484375,-0.819793701171875,-0.3073272705078125,2018954.647769,0.1702992916107178,-0.2170020937919617,0.2345698922872543,2018954.649936,171.1419982910156,71.66067504882812,-476.22265625,3
2023-02-18T22:07:49.266Z,381,2018954.686778,0.8910980224609375,-0.823150634765625,-0.2962188720703125,2018954.667789,0.1028613969683647,-0.1620267182588577,0.2355203777551651,2018954.66965,171.0402984619141,71.76223754882812,-476.0804443359375,3
2023-02-18T22:07:49.278Z,382,2018954.706797,0.9101715087890625,-0.84393310546875,-0.317169189453125,2018954.687778,0.03518301993608475,-0.05500040203332901,0.1597750186920166,2018954.689364,170.6731567382812,71.50801086425781,-476.0345764160156,3
2023-02-18T22:07:49.305Z,383,2018954.726817,0.98321533203125,-0.8697052001953125,-0.324981689453125,2018954.707797,0.04356638714671135,-0.04062812030315399,0.109566442668438,2018954.709079,170.6661071777344,71.45840454101562,-475.884521484375,3
2023-02-18T22:07:49.318Z,384,2018954.746806,0.9647979736328125,-0.915802001953125,-0.3183441162109375,2018954.727817,0.0135248638689518,-0.009006012231111526,0.004802744835615158,2018954.728793,170.6841888427734,71.5054931640625,-475.8795166015625,3
2023-02-18T22:07:49.344Z,385,2018954.766825,1.08538818359375,-0.96539306640625,-0.390838623046875,2018954.747806,-0.04429981857538223,0.05125253647565842,-0.145381435751915,2018954.748508,170.6329193115234,71.60568237304688,-475.8557739257812,3
2023-02-18T22:07:49.358Z,386,2018954.786845,1.147872924804688,-1.069412231445312,-0.464752197265625,2018954.767825,-0.1170829460024834,0.1041184142231941,-0.328864187002182,2018954.768222,171.1574554443359,71.70149230957031,-475.6523742675781,3
2023-02-18T22:07:49.385Z,387,2018954.806834,1.189971923828125,-1.1475830078125,-0.4090118408203125,2018954.787845,-0.2395276427268982,0.1784549653530121,-0.5311616063117981,2018954.787936,171.3945159912109,71.47654724121094,-475.9320678710938,3
2023-02-18T22:07:49.398Z,388,2018954.826853,1.274520874023438,-1.111907958984375,-0.450775146484375,2018954.807834,-0.3370161056518555,0.423645555973053,-0.7691406011581421,2018954.807651,171.5543670654297,71.72300720214844,-475.9156799316406,3
2023-02-18T22:07:49.420Z,389,2018954.846873,1.239425659179688,-1.131240844726562,-0.4595489501953125,2018954.827853,-0.3437978625297546,0.4082633852958679,-0.962798535823822,2018954.827395,172.43798828125,72.08843994140625,-476.100341796875,3
2023-02-18T22:07:49.438Z,390,2018954.866862,1.109344482421875,-1.149185180664062,-0.39898681640625,2018954.847873,-0.2582893371582031,0.2932859361171722,-1.037307620048523,2018954.84711,173.3281707763672,72.42507934570312,-475.83740234375,3
2023-02-18T22:07:49.467Z,391,2018954.886881,1.045700073242188,-1.08734130859375,-0.3255157470703125,2018954.867862,-0.2836559414863586,0.4313394129276276,-1.025617718696594,2018954.866824,173.5649871826172,72.67715454101562,-475.8726806640625,3
2023-02-18T22:07:49.478Z,392,2018954.906901,0.99468994140625,-1.033721923828125,-0.2281036376953125,2018954.887881,-0.2794489562511444,0.5743541121482849,-0.9839786291122437,2018954.886539,174.6707458496094,72.81695556640625,-475.705322265625,3
2023-02-18T22:07:49.511Z,393,2018954.92689,0.865753173828125,-1.0098876953125,-0.23724365234375,2018954.907901,-0.2928116321563721,0.6940586566925049,-0.8652223944664001,2018954.906283,175.1238098144531,73.00634765625,-475.7598266601562,3
2023-02-18T22:07:49.518Z,394,2018954.946909125,0.7654266357421875,-0.9451446533203125,-0.2307586669921875,2018954.92789,-0.404180496931076,0.872334897518158,-0.6260119676589966,2018954.925998,175.8470458984375,72.99516296386719,-475.5577697753906,3
2023-02-18T22:07:49.546Z,395,2018954.966929125,0.7393341064453125,-0.852264404296875,-0.20751953125,2018954.947909125,-0.3718822002410889,0.8605414032936096,-0.3691681921482086,2018954.945712125,176.6590270996094,72.81124877929688,-475.4940795898438,3
2023-02-18T22:07:49.558Z,396,2018954.986918125,0.7343902587890625,-0.7889251708984375,-0.1685333251953125,2018954.967929125,-0.2480904906988144,0.6924924254417419,-0.1297345608472824,2018954.965426125,177.0964202880859,72.88099670410156,-475.4619140625,3
2023-02-18T22:07:49.590Z,397,2018955.006937125,0.6111602783203125,-0.779998779296875,-0.1294097900390625,2018954.987918125,-0.156027689576149,0.6402670741081238,-0.01970765739679337,2018954.985141125,177.4724578857422,72.50030517578125,-475.1845703125,3
2023-02-18T22:07:49.598Z,398,2018955.026926125,0.5380859375,-0.753692626953125,-0.14801025390625,2018955.007937125,-0.1015157029032707,0.5715546011924744,0.1877581775188446,2018955.004855125,177.5695953369141,71.9256591796875,-474.8236694335938,3
2023-02-18T22:07:49.625Z,399,2018955.046946125,0.51751708984375,-0.6652984619140625,-0.132354736328125,2018955.027926125,-0.06786586344242096,0.5739511847496033,0.3311795294284821,2018955.024570125,177.6500549316406,71.74528503417969,-475.0909423828125,3
2023-02-18T22:07:49.638Z,400,2018955.066966125,0.64227294921875,-0.63433837890625,-0.0768585205078125,2018955.047946125,-0.005304750520735979,0.4380849301815033,0.5373438596725464,2018955.044284125,177.6712036132812,71.477294921875,-475.0263671875,3
2023-02-18T22:07:49.665Z,401,2018955.086955125,0.4891204833984375,-0.6484527587890625,-0.0961761474609375,2018955.067966125,0.0862312912940979,0.1475114226341248,0.4872143864631653,2018955.063998125,177.4534149169922,71.10014343261719,-474.8441772460938,3
2023-02-18T22:07:49.678Z,402,2018955.106974125,0.448516845703125,-0.602508544921875,-0.141998291015625,2018955.087955125,0.02561348490417004,0.2694383859634399,0.6760972142219543,2018955.083713125,177.0341644287109,70.75521850585938,-475.025390625,3
2023-02-18T22:07:49.700Z,403,2018955.126994125,0.3996429443359375,-0.571929931640625,-0.11798095703125,2018955.107974125,-0.08824411034584045,0.5634630918502808,0.7144225239753723,2018955.103427125,177.2312469482422,70.64610290527344,-474.556640625,3
2023-02-18T22:07:49.718Z,404,2018955.146983125,0.436126708984375,-0.6058197021484375,0.003082275390625,2018955.127994125,0.01444045826792717,0.5519031286239624,0.8823052644729614,2018955.123141125,176.9518127441406,70.19711303710938,-474.0916748046875,3
2023-02-18T22:07:49.745Z,405,2018955.167002125,0.4820709228515625,-0.58502197265625,-0.0702362060546875,2018955.147983125,0.04753129929304123,0.5300582647323608,0.9594541192054749,2018955.142856125,176.4392852783203,69.90766906738281,-474.3147583007812,3
2023-02-18T22:07:49.758Z,406,2018955.187022125,0.625457763671875,-0.48785400390625,-0.0427093505859375,2018955.168002125,0.08695007860660553,0.4899249672889709,1.165303111076355,2018955.162540125,176.2439117431641,69.47955322265625,-473.9963989257812,3
2023-02-18T22:07:49.785Z,407,2018955.207011125,0.409881591796875,-0.5411529541015625,-0.180816650390625,2018955.188022125,0.2183381915092468,0.518239438533783,1.049768328666687,2018955.182284125,175.9482727050781,69.08702087402344,-473.6372680664062,3
2023-02-18T22:07:49.798Z,408,2018955.227030125,0.3632965087890625,-0.582061767578125,-0.050140380859375,2018955.208011125,0.4223933219909668,0.5860275030136108,1.216092824935913,2018955.201999125,175.4566192626953,68.56793212890625,-473.379150390625,3
2023-02-18T22:07:49.823Z,409,2018955.247050125,0.449859619140625,-0.6765289306640625,0.115478515625,2018955.228030125,0.6240843534469604,0.2678666114807129,1.399768948554993,2018955.221713125,174.8376770019531,67.83200073242188,-473.12744140625,3
2023-02-18T22:07:49.838Z,410,2018955.267039125,0.5142822265625,-0.562713623046875,-0.003448486328125,2018955.248050125,0.2836900353431702,0.6402340531349182,1.529437661170959,2018955.241427125,173.7670745849609,67.24954223632812,-472.3349914550781,3
2023-02-18T22:07:49.860Z,411,2018955.287058125,0.5382232666015625,-0.5303497314453125,-0.046661376953125,2018955.268039125,0.2722573578357697,0.5761626362800598,1.585185050964355,2018955.261142125,172.9391632080078,66.79093933105469,-472.091064453125,3
2023-02-18T22:07:49.878Z,412,2018955.307078125,0.3851776123046875,-0.5557098388671875,-0.0562896728515625,2018955.288058125,0.4546788334846497,0.3696563541889191,1.569834589958191,2018955.280887125,172.3004150390625,65.98933410644531,-471.8649291992188,3
2023-02-18T22:07:49.906Z,413,2018955.327067125,0.3643646240234375,-0.5526123046875,0.0613250732421875,2018955.308078125,0.3840358257293701,0.6102489829063416,1.50987434387207,2018955.300601125,171.3112945556641,65.58319091796875,-471.5444641113281,3
2023-02-18T22:07:49.919Z,414,2018955.347086125,0.3668670654296875,-0.5399322509765625,0.04718017578125,2018955.328067125,0.3402065634727478,0.8131592273712158,1.591859221458435,2018955.320315125,170.2090454101562,64.89190673828125,-471.1895751953125,3
2023-02-18T22:07:49.938Z,415,2018955.367075125,0.390106201171875,-0.6289520263671875,0.02618408203125,2018955.348086125,0.3407407999038696,0.819503128528595,1.544291257858276,2018955.340030125,169.3060455322266,64.28877258300781,-470.6742553710938,3
2023-02-18T22:07:49.958Z,416,2018955.387095125,0.3410491943359375,-0.570343017578125,0.0438385009765625,2018955.368075125,0.2691443860530853,1.027558088302612,1.729015231132507,2018955.359744125,168.4668273925781,63.69967651367188,-470.2815551757812,3
2023-02-18T22:07:49.980Z,417,2018955.407114125,0.32281494140625,-0.65106201171875,0.0258941650390625,2018955.388095125,0.4377576410770416,0.8876731395721436,1.772515058517456,2018955.379458125,167.2809753417969,63.34712219238281,-469.6914367675781,3
2023-02-18T22:07:49.998Z,418,2018955.427103125,0.3122711181640625,-0.6104736328125,0.0145416259765625,2018955.408114125,0.5236006379127502,0.8066020011901855,1.802797079086304,2018955.399173125,166.4675140380859,62.63510131835938,-469.3085327148438,3
2023-02-18T22:07:50.025Z,419,2018955.447123125,0.413726806640625,-0.5096893310546875,0.0134735107421875,2018955.428103125,0.6859437227249146,0.480913370847702,1.846731543540955,2018955.418857125,165.5379943847656,61.84126281738281,-468.875732421875,3
2023-02-18T22:07:50.038Z,420,2018955.467143125,0.41644287109375,-0.5494537353515625,0.04327392578125,2018955.448123125,0.878070592880249,-0.003180346917361021,1.521911025047302,2018955.438571125,164.3126831054688,61.42523193359375,-468.3005676269531,3
2023-02-18T22:07:50.064Z,421,2018955.487132125,0.4545745849609375,-0.6184234619140625,-0.0268707275390625,2018955.488132125,0.5925352573394775,-0.09224044531583786,0.6874481439590454,2018955.478000125,162.3791351318359,60.55035400390625,-467.2848205566406,3
2023-02-18T22:07:50.078Z,422,2018955.507151125,0.5227508544921875,-0.68939208984375,-0.001007080078125,2018955.488132125,0.5925352573394775,-0.09224044531583786,0.6874481439590454,2018955.497714125,161.8434600830078,60.37953186035156,-466.787353515625,3
2023-02-18T22:07:50.100Z,423,2018955.527171125,0.5052490234375,-0.8414154052734375,-0.058197021484375,2018955.508151125,0.2644668221473694,-0.09800033271312714,0.143996849656105,2018955.517428125,162.2809448242188,60.36497497558594,-466.4449768066406,3
2023-02-18T22:07:50.118Z,424,2018955.547160125,0.3683929443359375,-0.93536376953125,-0.058990478515625,2018955.528171125,-0.06177548319101334,-0.129164382815361,-0.2276888191699982,2018955.537143125,162.6286773681641,60.77378845214844,-466.6627807617188,3
2023-02-18T22:07:50.145Z,425,2018955.567179125,0.4078369140625,-0.9341278076171875,-0.037078857421875,2018955.548160125,-0.3602995872497559,0.0227039810270071,-0.3923912048339844,2018955.556857125,162.7232208251953,60.83270263671875,-466.9753723144531,3
2023-02-18T22:07:50.158Z,426,2018955.587199125,0.4430084228515625,-0.8875885009765625,-0.0523681640625,2018955.568179125,-0.4761518836021423,0.01182230468839407,-0.48465296626091,2018955.576571125,162.9075469970703,61.3011474609375,-467.272705078125,3
2023-02-18T22:07:50.185Z,427,2018955.607188125,0.403228759765625,-0.8832550048828125,0.012725830078125,2018955.588199125,-0.4506678283214569,-0.1736785769462585,-0.5288782119750977,2018955.596286125,163.4435272216797,61.3065185546875,-467.4489135742188,3
2023-02-18T22:07:50.198Z,428,2018955.627207125,0.366180419921875,-0.865631103515625,0.0602264404296875,2018955.608188125,-0.3264574706554413,-0.2750749886035919,-0.5001767873764038,2018955.616031125,163.6362915039062,61.50273132324219,-467.6521606445312,3
2023-02-18T22:07:50.223Z,429,2018955.647196125,0.3647613525390625,-0.8490142822265625,0.06005859375,2018955.628207125,-0.1352763324975967,-0.2706714272499084,-0.4646558165550232,2018955.635745125,163.4899749755859,61.85121154785156,-467.8870849609375,3
2023-02-18T22:07:50.238Z,430,2018955.667216125,0.442169189453125,-0.8022003173828125,0.0938262939453125,2018955.648196125,-0.08770827949047089,-0.3986616432666779,-0.5170953273773193,2018955.655459125,163.9479675292969,61.64671325683594,-468.073974609375,3
2023-02-18T22:07:50.260Z,431,2018955.687235125,0.4822998046875,-0.7362213134765625,0.0061187744140625,2018955.668216125,-0.2506953477859497,-0.3255687654018402,-0.7256932854652405,2018955.675204125,164.1058502197266,61.8272705078125,-468.365966796875,3
2023-02-18T22:07:50.278Z,432,2018955.707224125,0.4456024169921875,-0.751251220703125,0.035491943359375,2018955.688235125,-0.3114239275455475,-0.4945324957370758,-0.8885954022407532,2018955.694919125,164.9536590576172,62.06227111816406,-468.7290649414062,3
2023-02-18T22:07:50.305Z,433,2018955.727244125,0.3669586181640625,-0.768707275390625,-0.01226806640625,2018955.708224125,-0.4894567728042603,-0.3993527293205261,-0.9993067383766174,2018955.714664125,165.2622222900391,62.25434875488281,-468.7210083007812,3
2023-02-18T22:07:50.318Z,434,2018955.747263125,0.4622039794921875,-0.629150390625,-0.0202484130859375,2018955.728244125,-0.5792441964149475,-0.4821410775184631,-1.097741723060608,2018955.734378125,165.9345550537109,62.84886169433594,-469.5721435546875,3
2023-02-18T22:07:50.345Z,435,2018955.767252125,0.525238037109375,-0.61602783203125,0.0391693115234375,2018955.748263125,-0.554398238658905,-0.742245078086853,-1.343472361564636,2018955.754123125,166.7843627929688,62.91659545898438,-470.0116577148438,3
2023-02-18T22:07:50.358Z,436,2018955.787272125,0.28985595703125,-0.74310302734375,-0.05169677734375,2018955.768252125,-0.5965384840965271,-0.7224926948547363,-1.456464648246765,2018955.773837125,167.7925872802734,63.49079895019531,-470.5343627929688,3
2023-02-18T22:07:50.380Z,437,2018955.807291125,0.3310699462890625,-0.6251068115234375,-0.06634521484375,2018955.788272125,-0.6885994672775269,-0.5274028182029724,-1.381175518035889,2018955.793551125,168.6676177978516,63.9527587890625,-471.2028198242188,3
2023-02-18T22:07:50.398Z,438,2018955.827280125,0.59619140625,-0.6028289794921875,-0.034332275390625,2018955.808291125,-0.6466674208641052,-0.6090340614318848,-1.427887320518494,2018955.813266125,169.4345092773438,64.56855773925781,-471.6368713378906,3
2023-02-18T22:07:50.425Z,439,2018955.847300125,0.3367919921875,-0.7852020263671875,-0.08416748046875,2018955.828280125,-0.8494365215301514,-0.4869872331619263,-1.473540544509888,2018955.833011125,170.4796752929688,65.17820739746094,-472.1103515625,3
2023-02-18T22:07:50.439Z,440,2018955.867320125,0.36590576171875,-0.5839691162109375,-0.0714874267578125,2018955.848300125,-0.8963190913200378,-0.4920834600925446,-1.3569256067276,2018955.852725125,170.9457244873047,65.62478637695312,-473.1100463867188,3
2023-02-18T22:07:50.466Z,441,2018955.887309125,0.8356475830078125,-0.5792999267578125,-0.024993896484375,2018955.868320125,-0.8018921613693237,-0.4953556954860687,-1.418189406394958,2018955.872409125,171.5237426757812,66.0810546875,-473.5813598632812,3
2023-02-18T22:07:50.478Z,442,2018955.907328125,0.2475128173828125,-0.7137603759765625,-0.1876068115234375,2018955.888309125,-0.9349290728569031,-0.1424929648637772,-1.518497467041016,2018955.892123125,172.5291748046875,66.89836120605469,-474.157470703125,3
2023-02-18T22:07:50.507Z,443,2018955.927348125,0.51629638671875,-0.7226104736328125,-0.071197509765625,2018955.908328125,-0.6564247012138367,-0.624498724937439,-1.07648777961731,2018955.911838125,172.9380035400391,67.68888854980469,-474.7128295898438,3
2023-02-18T22:07:50.518Z,444,2018955.947311042,0.685577392578125,-0.5711517333984375,-0.0767974853515625,2018955.928348125,-0.8821782469749451,-0.2977184951305389,-1.212640285491943,2018955.931582125,173.5101318359375,68.10954284667969,-475.0338134765625,3
2023-02-18T22:07:50.540Z,445,2018955.967330042,0.4346160888671875,-0.631500244140625,-0.1469879150390625,2018955.948311042,-0.9287196397781372,-0.1186076030135155,-1.219327211380005,2018955.951271042,174.042236328125,68.86747741699219,-475.87548828125,3
2023-02-18T22:07:50.559Z,446,2018955.987319042,0.598052978515625,-0.5028228759765625,-0.07965087890625,2018955.968330042,-0.6810978651046753,-0.2324907630681992,-1.062345385551453,2018955.970985042,174.4949645996094,69.20820617675781,-476.3197631835938,3
2023-02-18T22:07:50.585Z,447,2018956.007339042,0.72747802734375,-0.600433349609375,-0.1304779052734375,2018955.988319042,-0.5872206091880798,-0.07139695435762405,-1.148513197898865,2018955.990700042,175.3395690917969,69.89230346679688,-476.9137573242188,3
2023-02-18T22:07:50.598Z,448,2018956.027358042,0.5831298828125,-0.639068603515625,-0.1070098876953125,2018956.008339042,-0.5101484656333923,-0.08500064164400101,-1.124883770942688,2018956.010414042,175.8427734375,70.33265686035156,-476.8919982910156,3
2023-02-18T22:07:50.623Z,449,2018956.047347042,0.6230316162109375,-0.5433197021484375,-0.099761962890625,2018956.028358042,-0.2968106269836426,-0.1115294545888901,-0.9039495587348938,2018956.030128042,176.5396270751953,70.90797424316406,-477.4740295410156,3
2023-02-18T22:07:50.639Z,450,2018956.067367042,0.6977081298828125,-0.6028594970703125,-0.1224365234375,2018956.048347042,-0.1311937123537064,0.01419890951365232,-0.866424560546875,2018956.049843042,176.8012542724609,71.26876831054688,-477.4653625488281,3
2023-02-18T22:07:50.660Z,451,2018956.087386042,0.6387786865234375,-0.601776123046875,-0.14251708984375,2018956.068367042,-0.0167387668043375,0.1236220747232437,-0.8418619632720947,2018956.069557042,177.5392608642578,71.76461791992188,-477.3089294433594,3
2023-02-18T22:07:50.678Z,452,2018956.107375042,0.7099761962890625,-0.5232696533203125,-0.13702392578125,2018956.088386042,0.2560062110424042,-0.0418102964758873,-0.5976415872573853,2018956.089271042,177.7565002441406,72.09754943847656,-477.3411254882812,3
2023-02-18T22:07:50.704Z,453,2018956.127395042,0.7106781005859375,-0.614349365234375,-0.2132110595703125,2018956.108375042,0.3080512881278992,0.09601015597581863,-0.5284491777420044,2018956.108986042,178.0526428222656,72.17193603515625,-477.1726684570312,3
2023-02-18T22:07:50.719Z,454,2018956.147414042,0.6269683837890625,-0.64654541015625,-0.2825775146484375,2018956.128395042,0.1629218012094498,0.2843691408634186,-0.4136485755443573,2018956.128700042,178.3892059326172,72.55467224121094,-477.0086669921875,3
2023-02-18T22:07:50.745Z,455,2018956.167403042,0.6348114013671875,-0.546630859375,-0.3005828857421875,2018956.148414042,0.2504743039608002,0.1115574240684509,-0.3142900168895721,2018956.148414042,178.8346252441406,72.486083984375,-476.9946594238281,3
2023-02-18T22:07:50.758Z,456,2018956.187423042,0.76116943359375,-0.5352325439453125,-0.2248077392578125,2018956.168403042,0.372763991355896,-0.1274796575307846,-0.2956851720809937,2018956.168129042,178.7487182617188,72.6358642578125,-476.985107421875,3
2023-02-18T22:07:50.780Z,457,2018956.207442042,0.68035888671875,-0.5762939453125,-0.1968231201171875,2018956.188423042,0.2588677704334259,-0.01860244572162628,-0.1933851689100266,2018956.187874042,178.8275451660156,72.852294921875,-476.6198120117188,3
2023-02-18T22:07:50.799Z,458,2018956.227431042,0.7132568359375,-0.6620635986328125,-0.127532958984375,2018956.208442042,0.3457249104976654,-0.1155180707573891,-0.1191626116633415,2018956.207588042,178.7296295166016,72.9879150390625,-476.5309143066406,3
2023-02-18T22:07:50.824Z,459,2018956.247451042,0.6550445556640625,-0.75152587890625,-0.250823974609375,2018956.228431042,0.2003674507141113,0.03443573787808418,-0.01196851208806038,2018956.227302042,179.1990051269531,73.09796142578125,-476.1105346679688,3
2023-02-18T22:07:50.839Z,460,2018956.267440042,0.7897186279296875,-0.7064056396484375,-0.220458984375,2018956.248451042,0.3385255932807922,-0.4115739762783051,0.1961404830217361,2018956.247017042,179.0057525634766,73.12921142578125,-476.192138671875,3
2023-02-18T22:07:50.860Z,461,2018956.287460042,0.78839111328125,-0.7091064453125,-0.134368896484375,2018956.268440042,0.2902616560459137,-0.5266667604446411,0.180235281586647,2018956.266731042,178.639404296875,73.04978942871094,-476.0468444824219,3
2023-02-18T22:07:50.879Z,462,2018956.307479042,0.756500244140625,-0.7653045654296875,-0.10443115234375,2018956.288460042,0.1218963414430618,-0.365778774023056,0.2779155075550079,2018956.286445042,178.3222503662109,72.87513732910156,-475.9317016601562,3
2023-02-18T22:07:50.904Z,463,2018956.327468042,0.8197784423828125,-0.759735107421875,-0.1466064453125,2018956.308479042,0.1084804013371468,-0.3956583738327026,0.3521724343299866,2018956.306160042,178.2131042480469,72.96185302734375,-476.1923828125,3
2023-02-18T22:07:50.919Z,464,2018956.347488042,0.78558349609375,-0.8282623291015625,-0.20098876953125,2018956.328468042,0.1237171441316605,-0.3829556405544281,0.3485665023326874,2018956.325874042,177.5517272949219,73.00289916992188,-476.2548522949219,3
2023-02-18T22:07:50.943Z,465,2018956.367507042,0.82769775390625,-0.78485107421875,-0.160888671875,2018956.348488042,0.2039070576429367,-0.5319909453392029,0.3645659685134888,2018956.345588042,176.8616943359375,72.55247497558594,-475.9299011230469,3
2023-02-18T22:07:50.959Z,466,2018956.387496042,0.80303955078125,-0.792449951171875,-0.1603240966796875,2018956.368507042,0.1791974455118179,-0.5005006194114685,0.2816157042980194,2018956.365303042,176.7368316650391,72.61619567871094,-476.0771789550781,3
2023-02-18T22:07:50.980Z,467,2018956.407516042,0.803558349609375,-0.81719970703125,-0.1711883544921875,2018956.388496042,0.295691043138504,-0.597291886806488,0.2273324877023697,2018956.384987042,176.211669921875,72.32229614257812,-476.1204833984375,3
2023-02-18T22:07:50.999Z,468,2018956.427535042,0.8626556396484375,-0.796417236328125,-0.2326507568359375,2018956.408516042,0.1796291470527649,-0.3471382558345795,0.1758067160844803,2018956.404701042,176.1774291992188,72.22441101074219,-476.0111694335938,3
2023-02-18T22:07:51.024Z,469,2018956.447524042,0.7894134521484375,-0.8400726318359375,-0.2239227294921875,2018956.428535042,0.2465141713619232,-0.435752272605896,0.1409009248018265,2018956.424415042,176.0010681152344,72.32980346679688,-476.1025390625,3
2023-02-18T22:07:51.039Z,470,2018956.467544042,0.788238525390625,-0.8217010498046875,-0.1818695068359375,2018956.448524042,0.3775376975536346,-0.6235677003860474,0.2476742416620255,2018956.444130042,175.6610107421875,72.24702453613281,-476.243896484375,3
2023-02-18T22:07:51.065Z,471,2018956.487563042,0.8397216796875,-0.7848358154296875,-0.2174530029296875,2018956.468544042,0.3313941657543182,-0.5947214365005493,0.2126978933811188,2018956.463844042,175.0594482421875,72.129150390625,-476.0156860351562,3
2023-02-18T22:07:51.079Z,472,2018956.507552042,0.8604888916015625,-0.7965240478515625,-0.2644805908203125,2018956.488563042,0.2296233326196671,-0.5843883752822876,0.08222456276416779,2018956.483558042,175.1094360351562,71.78767395019531,-476.1648254394531,3
2023-02-18T22:07:51.099Z,473,2018956.527572042,0.707183837890625,-0.8292083740234375,-0.237945556640625,2018956.508552042,0.1840047240257263,-0.4793761968612671,0.1035729944705963,2018956.503273042,174.9779968261719,71.973388671875,-476.2700500488281,3
2023-02-18T22:07:51.119Z,474,2018956.547591042,0.7667999267578125,-0.7940673828125,-0.2497406005859375,2018956.528572042,0.2013488262891769,-0.4340617060661316,0.2667941451072693,2018956.522987042,174.654052734375,71.94401550292969,-475.960205078125,3
2023-02-18T22:07:51.144Z,475,2018956.567580042,0.8918304443359375,-0.7222900390625,-0.263458251953125,2018956.548591042,0.2059164196252823,-0.4950161278247833,0.2272094488143921,2018956.542732042,174.2185363769531,71.54438781738281,-476.110595703125,3
2023-02-18T22:07:51.159Z,476,2018956.587600042,0.797637939453125,-0.7874298095703125,-0.29803466796875,2018956.568580042,0.2402927577495575,-0.6267200708389282,0.08920258283615112,2018956.562446042,174.1722869873047,71.50761413574219,-476.3186340332031,3
